"success","timeout","failed_images","failed_audio","failed_video","trial_type","trial_index","time_elapsed","internal_node_id","subject","rt","device_id","view_history","stimulus","response","estimated_stimulus_onset"
"true","false","[]","[]","[]","preload","0","263","0.0-0.0","7y04stub0b6y7z6","","","","","",""
"true","","","","","fullscreen","1","6335","0.0-1.0","7y04stub0b6y7z6","5069","","","","",""
"","","","","","initialize-microphone","2","8707","0.0-2.0","7y04stub0b6y7z6","","a245aeecc0339b94ca3b74e02bb1150e9e1aee21df4e57afe28caa91d36d71b3","","","",""
"","","","","","instructions","3","11249","0.0-3.0","7y04stub0b6y7z6","2542","","[{""page_index"":0,""viewing_time"":1542},{""page_index"":1,""viewing_time"":1000}]","","",""
"","","","","","image-button-response","4","15761","0.0-4.0-0.0","7y04stub0b6y7z6","null","","","images/instructions/timeline_0/1_Barck_Obama.png","null",""
"","","","","","image-button-response","5","18466","0.0-4.0-1.0","7y04stub0b6y7z6","null","","","images/instructions/timeline_0/1_Barck_Obama.png","null",""
"","","","","","image-button-response","6","20285","0.0-4.0-2.0","7y04stub0b6y7z6","null","","","[]","null",""
"","","","","","image-button-response","7","24796","0.0-4.0-0.1","7y04stub0b6y7z6","null","","","images/instructions/timeline_0/2_Leonardo_DiCaprio.png","null",""
"","","","","","image-button-response","8","27506","0.0-4.0-1.1","7y04stub0b6y7z6","null","","","images/instructions/timeline_0/2_Leonardo_DiCaprio.png","null",""
"","","","","","image-button-response","9","29311","0.0-4.0-2.1","7y04stub0b6y7z6","null","","","[]","null",""
"","","","","","image-button-response","10","33815","0.0-4.0-0.2","7y04stub0b6y7z6","null","","","images/instructions/timeline_0/3_Beyonce.png","null",""
"","","","","","image-button-response","11","35216","0.0-4.0-1.2","7y04stub0b6y7z6","1399","","","images/instructions/timeline_0/3_Beyonce.png","1",""
"","","","","","image-button-response","12","37024","0.0-4.0-2.2","7y04stub0b6y7z6","null","","","[]","null",""
"","","","","","instructions","13","39149","0.0-5.0","7y04stub0b6y7z6","2124","","[{""page_index"":0,""viewing_time"":1320},{""page_index"":1,""viewing_time"":804}]","","",""
"","","","","","html-audio-response","14","42562","0.0-6.0","7y04stub0b6y7z6","2572","","","<span style=""color: red; font-size: 24px""> NOW RECORDING</span>
        <p>Please say out loud the names of the celebrities you saw. The names can be said in any order.</p>","GkXfo59ChoEBQveBAULygQRC84EIQoKEd2VibUKHgQRChYECGFOAZwH/////////FUmpZpkq17GDD0JATYCGQ2hyb21lV0GGQ2hyb21lFlSua7+uvdeBAXPFh7yGKua0QqyDgQKGhkFfT1BVU2Oik09wdXNIZWFkAQEAAIC7AAAAAADhjbWERzuAAJ+BAWJkgSAfQ7Z1Af/////////ngQCjRBuBAACA+4P/Mv0Kf+1x9xnRyr6TuP/3GYzw32Y9jWk9LwhzPkJ15jFTx7d6QhVnVF2z29hYuUe6BNH2fLOCH3ThLEDW4iwCTIaRR7i+NZe2mvhQjs1EOUu0jufDempXmgtEFJMVi0g7WDyvjCah+h/xNuiq7X61nPP2GzItrG8qcNCaALlivIgCe7M1RRXIWbTIFYbvSdGijrArcrCCZywXF5ELdIb/wHoDu/ZEj/bwsM28QHQW8D9mHwShmkmpYbHCyBkV4iArWeHUVX3/gxZ3LcnCA5kpLll3CJ0fsgXtk/FjpAdIV5pFT+Ak7yrbH7U4ANX3mojfiEEaitOQg/udbVg/wVTlisfrXWhvdYlIJdbrrlfADM6OzTPTQWZR68Ucha9ximhN/laCRvJjCn2idqjHeDHNUXxhkLPvyrpWFAh+VWzft9slKKZX9clA8FS4yc2gFB9e2pbWfKVBgfprCVI/5qMPTAkKI4OpYofYCq1Qic728QAg6KSNQhOLAADMokSQFahu1XmcsFnWpvtW7UIdDb+A67Je4WPWnMx9RvpbhT/VFDdMGnjCQF8rB5GvMgnmciojP0dwCmz9zIT1uZdTl+pcrAYkwDbfCcjhe79hGsXqtn82yEqOxgTVhRxZgQpI0To93mglTTvVoSh48jtjQ8jVhpPJt+MLHBVHbjfXFWcOqJ+DWmwF8ta2hJwvR4ik8LoKWXHzxHjOOP2p9oS3+57RKz/Ja++rvHNRaNhjsMBD2tiHuaUkzW/HimO2SU4hTIthKEgwL2sGTPaYUXQlKBorgCj09YRxXfXNJI2fln7/t8WM3goR4i1ciuzjQEg7xln6dSNkui9+rYxS4/FlwJ8sH2ZBPYwxrgiGI0j8UfAydWKu9zimE1IpWyCRf+fOgz+JIhsC2mVeS4vbTYbQv5Q6jrhIZZsHUX0pAkwOV2qUoZe2WNn76RXk5ABjbK5W1ToIczMcYOgLqjs0nXteXTPd1QAug4Uvun4xY+4RtrwxfGBphnV5rhKwYm1D9PVADdIVeE1lpl/Z0tS98tFR/FrPRDg5kb7HtH1G830V7Qun1gN34vGdXtzCVzIy7PDXUcbJ3sXnJzemvkbS2seyViSaZAK9Vil9OLZ2oRt7ijC6dNRi0KjWKmAz5rP0H4agE3BI+XKiq3dHnlp8p+Fnwgbwkz2vd9ifQhCfB62BUdkMQ9PFZzowxo9L0rbCobnMRM/3elxVaUSF6G6JbqjJ2SUgMeAUf4HQQ7XEw3LxPrEodEAmeo+pW6seDEy0tqmpNTESX/mcosjuYEpevSnA9Ifec6y3F8l0hpZN2owRi8zuF32c35CRi7fwCsomnQCGgn3VBymANPwqyPqsPOgE9QR8wLvHn2GSPSsIoqCCcHR+gqrZ9Q37o0OCgQA8gPuD/gr9C2BrDseQ5ZaxQyJ7AYgSl/r8tm4/x8Qfc1QZ2l63irxdA7WIWRDafWQDajZ/pV/Q/EAjZ76gbPQZnbmbFQlqHCXzSDFiso1mbrAh5fylCvbhVVCmbcEHeGeFQfzmjImHa3cwgBLIZ9z+B0VnhDJ4/ROIm3BjLKn+U6/3IOXhzZtSaoc9OWelSTWaJjbs4tIJESzeuDd7VpWPkjuTS8AKeVN0PkubkJZvjeHIkauIqAX74eaGeyAXhPeCfvu5iNvNlsi+ibK6cCjPyeYp2AdaJ3dZ9bQwZ7vjzSjRRLcQbicQSHceC4GoPUXeNSpGTBvurAefKMGT/HR5Gm4/hn345A4yyV/pqLnhFsR2eqxSZdFGZt3gbmdPRhmlSMxVQPzotIdz9Mm8emA96HOCk9/Af/rX4SyVWOAZs2PS+WQhMnUYbNSyhCmeW3QKU68I7E6NL0uBAne6et9OygJvNMKMHsT3FXO6JFqLFlHLnVANUl8EwrTA0T20O8xJ6hfIW1VSO/fGuPA1udHdCSjtEyNz9MSPsg2kdqSaMARdr6l0Ohgz7fd4qjaZALA/PfBx1VwiM8YRJobCMVxvdg14H+zzVHZND9jzykKngqTptb+zPRKAPchsENtsytMRMKPqjNqmols//jFx1/dmZrFGuqgAydYMjhqp+jat3RvdFe0sdvGf34o9rpn0M6rGoQH6UL9F1HUUjMQpy5elGCO+DhP4uWposPVChI+RQustwkhu280tyi2fABMVg864XzIXhquTkoqQPEtcOAF0/FvlA8e/VWA95Yi4RpwhNdpeyz1nikv7qppKSk8n5f/jUVBjvuu6qnXG2oZ4IhyiVCxYHe8ev/P4aA1gVOD8qyKK4UehYlqb2O/pvR7PrKLwhzFtQSn9NYP4CZxgntlzUFt6A8t67PtFzh+0p4YoaDVTS34ayOitE82utwJ6Osy3s5pPBUKE8N7zMc5WA1J1Y7/zyd2Lia0IFKtvyTjZRsP4id9AAfqIS1NxlqLbff+dvfW2Otx0Z2iJwf/j7V9z/W3AFO+OtLKUwoO4kH7wp57prwXDI/u6m5jUKLCqMLpqcM4SlZHNEpgw3u6T0VtvTVU09I0yTFUtehdfip9tmrgQg8p8uO7LMilBtZv6KAndf1UvQLPCZsJ5zGJZ5no2Fx1Za0QdYSPwNFPT54D126NDwYEAeID7g/8O/BFgLRLUuZZpD0szE85mamgh7kUPQCCd+bB+SNZwBaGy6HEGIRyn1lLmPwBjVwbDv7C3k59/r/luWZsxiULWCEUPvlU1yIfoaGysTO4Y5wun/8ecL45daim0ejr08RPjutEZBw7ANe+Eap5upKjd75InccTN732hiAGGugX+yu0gX3riQYEHPA5wk+6uockJY6ZtAHTu0G6pr/nzm/TTPSstHuNexIRVgzCw8IPCH1wqcisRPkgSojfQGdSqS9LIRa6l84g64LhnFyx3egooykxWV1vJShpO4v2tOx+NlCWdPyTizbMp8yGiqIPnknHy7g51VCjC7n2Qcb0V6qNZ44dxEC+WL5ha2Ss59ja/HpamJa5AjWKO1q8a+mmPLIu1Adc8zggCsSS43iof6Ubib7WjCXiqqWk0GWEAMJlic9QgTWZHXs85iK/1kE4DC148KgdCKeN/5qCvnCR7v9VE7ysCQI+qLK6GED0svKKwCp3r/M6/n5NY1K9sc13Y5NgCgLnS+e/+NKOUFRivza2W5meOeXiqEkbUrFHvzdiINkRvqy4Obf/QN4CmsEQv33V6cJKon+C9vKjJXy8rHGaSEfCwbJ0RBBwHS6oCBw5ZHyR+PLXbdXHo1HPvCm0JQAGrHhVvt1lrPP94h00d+bIDnnukxyzWlxvKv5LGzQH9cEOzf1ZLkLZcmQOnSurXjXPnqKjJAbKzRI0Edt+/DkwFG4PR75LZjwJDh/MVFPrIqXVHvO3OQbr5R1Xx1gruiT+6OLonPkSepxT8y/Pc0Cn0y0POTMyIJWmVfj4sGNsuIzQKJ1IguMWW0hmszgMjDNK/mjGZf9xpy+heYD7aSbOMLULZTlrM/JCc9cIpGUEY6kQyB1nQbx+GwPvJ8mnyrV0ObR124dVsweNxTyu4RZfpgusrcGAVktgyQLxYAzFZFB8QCZjJ7tmneGRrIGSCa/brnK05b7w5iaF2AAPKUxjPIH8Xs0sGaRdteS8q894vcqXIkVaruzN8nt82q5z+5+l4JqHffCCQ1wqdGL26WUdmuyrRJJvzDTiDAuE5mCXpnS2+NOH6UKKYB0c++tiZodT4jE9QOvrZPury9XkmtUIYBsvKlxLRguKgrigO+q2Bbi3dwojS+0EI0T0vs4voVVzXdF6gLxAm+JiPAvQuubKgFTjuQEPZ1CandqjVH0EuOE+bpdNqOYdp0UGiwwFZsE+3nzMBZFthq8jkE+Glwd3U2UNzAIOlgrICKX3ovpzpfB8rKIlc5SR1RxGjQ8aBALOA+wNhAT2wKl9pmIeuz4L09Qjxps/+6i5B65NgPF7jXnrAHdZoUqi5ZZiK5RXWyflSl5dT2xuPchMFl70414ynNiUTCcgNFKnNqIkjv09fIrEfD/JuQngHh3GT2d5rZFvSVfhQeh6qWVZ9NNFNUxXTNw2W8UEri4LniFGTMW5nNAIZdI9nOnN6Xc1t2OGBRC7869h7sh6PZivR2+Qhy6fxLokLmvX9UMRSyUMUAC9p3q1f4l60bdcdjE/sbXvpwVAVmnULK7rHkC3RWd9UlQh8clJkwQ/IjrHImacYXoGF8PCMOmtXa7MYSkEXZY988sqAERzFUx4JaOJH0ZWCM2/bnHP87eSwIyQFbt8L1Up30498Amj0U/ho14bWTxtD0+7Zu1KKEKUiPR4OF2xUH1DismmDYG7Q2+tPMxggunWNfGA8DmEA7A+hsrvwSeHCUQmVC4AhqpcIGM2+PBkqv5BFmVuVf+Y1R3fE0EU1/q1e1/jFfSxAk/MRkfCPxVSErLVnwUBdgegOZ7EfpUvFThyz3w+r8VvhgXyvjtyTi4w2i9rKfHst+8e+UZbBiKr3p7hyyhzxJM2LPGM27yFd09kflfQPX36sB1qvQ1ZaO/D3+XzSMrATNoMBZtyOKgS1x6THvOUS2OKQGayFfCMKgPbMUFH3SR3xWZdfFBf1HVq2QtbCSpou3/B72TZovliUqBtsXEs63bFDlaLC5X2jg2doYAYEJ6ZKolkKb1jqgO8DDbwuIs32iiKYqHBWYcff8YY9YEb0ToSUc5AdyMGI5uIZC1/siMQJLVMFpMHuTIruMEoxrQOtMw7Ev6nGgAsR9Al0oAma1MP8JLDrmv+YCuzK8L0HYGmqBMN7mgdg1x+6WHM8UclZdod9gNdNrNMmDg9+zh0P1xZ1O8FrdQTEmfAijFx/gg5VXFcP4WG7ij5zdQEUW9dK903ju6sMAvLrjMZVUVVi9ZxPipTaynUSESFieoPzhzS5F+6ztTO85y4XlIzVEIX8WBLnPNo1VbgHsgMQle+MRZKO7tOiXTTpxt857tmpGGTSvmfzLr0UMkPCW2ksCQ3kiWHM2vBJeK1PB3OpTGlP9K4FuRxCYYLfYBGrtbcB/XXlWcmBkfPHBP2m2swFu+mv2VSIfrZvNvCyILjLtJXjigTD7MpB1kayTUJ8bhVpnFaQKEFttd9IUtHddKfeGTXWbWPk2fPSAYQQnDOkN/Hh03J1DkmJovd6HYUJq70S08aErxrVjaegJrU+jA3qrIUHNhW2wassDGUVv+9aDWKjQ8aBAPCA+wNhBjVhaxo8KU1Jlq5lOXSg/nZ9ckUoMSKXysUol4DFT3bJb0ABHWlxttd+oSfcaxDcnYwi0zPEoVGEVTbwNO9p4QDzjAok4NB8IiAbLDsup1E9j6AK7bE6O2QGzaT3+165jUORn+JvTG771p1eZXCVBHqiMmTKUZ7+FwDME65mLkZo7fQRo53P/ypXNwXzsnqg3X3x+XLCOPmlWmEuwZ57TDnpfRF9isJIZw+zB/HpRubSRTMBDVgQSi/2P/zVp9jsJ+OaEO9lZcewfQy1JBx6TkjJHIOv7+NSh8mq0CENAPeU/4eUDH/04KFCA6hNmXnQ6ZNtPicQ76FZIRNeoPipmD7eYUbK/LdTCgzZpxls4zbUym+G/hA2k994va7pfVqQc/9BDWh3OWSmvrrozF7yoQ+ZYFfzrJorp4esmQIinWEgfXuT+pAL5lnizSF+bcEIuqIlXBoFwaACIdzejJwuw7H7XhzmF4m12P9sqX8YXf1lm9srfLv7FNJhxLr9ZVdR5lkxcqQ5THL9nR9uL5e/z6Qj25rhHVJ1IvvtDzRsj0GRkFubD1cZk2tE8J3z+WsC8WNgucJoCTG3rwfGX2NzwJl46j2zDrp/SFL50fM6/XCnXayI1tesr6Uj7mAgJQG+OmhrVG1gosbNr7zzwBektCsOd63VOkQ6Ro4sW9fd6dROJ+e+tmOqhRyfPI9KAs9+LXqy0QZkZ7QpR7J9JiuA3TZe0mB2dxTyaKqqxfa8P5C7PoF+yXAtXyh3bJOuJjD7TevacDnOZt/N1FTOMDH89Aff4OqQjoPMunlBefAMB46r5xnl5tPFeD8iJFkNXLrnpQVwAOKjGy+V+6A/wNT3YG3J3EzKwSYVkQK2wcmpjjk3P/V5SKqLiy7XPMcCBqMTneh5BquYJ4hAutsILS9kWVbBSZknzSSI51pivgXtNs8HiDy9ru0d47l0U0fETJUGCXDlgB7c4kJs/6mwPOCIYaYGcOcZ5/H+1Fxs2GLOySlKLbN0+RBx8env3ImOL6/6QRO7dvSvR0TGe+rlKpjxY5GgLX3AjOAJhTY7eYIMPR684zJfZbidLvBuHWV5/cz3RC/45vifPPqCCUBJSMYLmpa1tS6eH3+uZDA1jlBk7TQLpkfYfIPDz6nGc62nBK2+VxkH7xmzRhC1XIqX1V6/EBYNaofMjYoXzyZcNuzIjRiWncuEAki5BFz91pL/G4LuoYDWxIrXDZnp94QwgunJjvmmiGpZrzz+bNVo0QK3ylpe4O8V1IMaCohzJPsiSjWjQ8aBASuA+wNhAx/dkFbpks+nwzB+SXDus71NJtp8WQhn1ITz/7YQYguwYuy8J2aYUNDgxtOl4kCqxSdQQVhsndFuzgAzPkrpI29VybvuZRwLJ/1a8nMBqxzhGK6I0aA6L9uY8UJO5Dz8P/KdocDblFS8RkfoG+6cc35udliEkMDrYBYSGo5vTiQUB1X8sSKdHpAd4dgjf4Un2e1aX1pfHfFqISESpUmB2j/JEpsh05YldK5t3UdvTb4aKPb7Cr26u/2wijlrXlMZYplw2yyEpvKww/cp0SduDss37nrTNe5GDF39IiM71m780+6Sly3I14Zw1jSfEWgpqUVNK7Ar7eqPrdpFXiu9T+wZF8YwMgdzwc25NqwCvnwdN0voPhvE1feHwf3vHunesQbqnl2VVmYNPaL1erWJmDhWPXhBOSsucv17c8AKf2A7cV/3b/BSa+eOO5Rjg/DZxGr1fkzerKycjqPWiwY/++Q+RnXBLGnee2G1MJEQ/91T56fm39uYKIcL71T+GxNrRLl9iE7+Dy3gXeSgbFxf740lcAImvU2AkWn0z9ort8+wA5PYbCBkTyBRXFiqjJ/ynE196pdtvSPC1RJQcMtUMvf/wYevaZCbCafZLYdPz4pVk/YQ4YTlpcAylQgHgP5XEO1TfJtw6MxCPB/Cm4l8hRICxmOn9T6dsPQOMlRvqzuLBScHPOYut1mP9o2PXRGZJylBzNb7KnmJs+NewjjJstSkQXqYJoMm7Keu8aCwPwdIK4ZZSMNZITCiacpNi0GCBerdDT+CVc9Pn7zY/kagYwoI70po861wjkQnuVCNu1UlEk551hV0o78xD5NlY1QwfCXPjTqUGlB6aYtGEW9MYSB2hn7QkQTv5E+/Srp1HWsC+eYTmZa42sZyV9M6Fgv6BoKEobnq1nVdLw+7LtfSv3iVxIXKZ6oJmc0yfRCPc4Omt7utSMCuuTkY3MjynZokaWDIpCCiOGH+cx18cr07yLXO2FN/vCO7OPMaA9Z2nJ5sl5skVBwlL5Lqy/PjskHdFBg0P5UKNV6aKiefavdEkurrRlpts0a9sap9JCJRtH6vZKvQ3Re8kF7N23XTxpWkzfnSTxvzEA0HdXoOqmvGb+Q9WALE7TQEw4cbeW23Zu0taVW0dNpByaIAgRRZIyAq3va39N4N6B8qrpVOaCjWpJ4xyX98CDIdWiI2sBjfpW8JE9SqrRNTXpohQDZi00vumsCim721SsbVp1VbVkun+X/HP3smz63noHYzWHgyObTkPVuK0NsqCp47tqg+TS6jQ8aBAWiA+wNgPtLiEcyAFdE/aoBg0cEycEkXHe0t1IoP5xJxqlKuMEBF2FzzRSSHdA5Q5eOBYQR16AQ8NAnQOUAzNlzgXnlox2ZlZX/8dQkN9gpoE3m7cAJ/LjVzIwNd8fRKE8NWHzxNVOrtmdoaOfbE6K8eCiQJkgQYSOWMEl1rgWkQy9MvUL3u5vX1sAEigBI8+BHCNLz7HX1VrPErTo3Yzm5WOeJQWy8mvnHZaz9RAwxOvsWnXqJ4R9j0salqOpKJsXPdffXJr/TKAzqdRKBLCugN+e7HGcq+AJR0sQ1FieIq9xgNXRO3tTg14k6jaD0fbM2RKgDdgoYst1m4RhbBpTR9om7Bdz+zqJx0XVmdGBmIXBqqFJuVP6t8k/0eXee6PxO+HPQ8VJlSaKlbt1SyU2/6/Qoi9pbRfGoACA4Lk8PXhfIXkmECil0CfjIiZKicjogCJ1SF1aAzwuzkNCL/4e+DfX6E+OndrNjKROlU0nFAMFBSWU6T5MGX6SL9qhKOSSB9siF+g3QGRZrGu4aHWRkj1dqF5xPrjRusIRdSw8vxoOoxiRrc5lED+BRF+IYZmYhEe+8fpoMG3VtA4VNfz/gdZ8mjUGCUyYvNOaGla/d1UcNKs3zro4L7vaBmXnCE9pKPZVXI9Zee4B/bIxErJLS6vQaJ3HNPYDPrfe7cjofcvZuIcpvRA/REjrOi3hoRX+AnB7LHdUlTMYNdgpHRqqIVztudyOIDhSrpiXLaX4RyYXh57zIujSYr5DkfdGjWZRNdI+6CfPRgo1i+TaVDgC7Rl1k34DUI6R7JezPby3OnQBO45o/DFuSamHoLgtIJuSNYPR82lerLGR3nGx4vmS6Qm4gZYDCapShQF3EefEqVoUwxb0OaXcnpij0QWK/O6WTPf+3AWAWD8eD4lsWXxPFc5P+521V+DzeIPGx68G/XwfrxKH42/yVjH1DZCy+65hQEHminVebcYUE6p37Y2ognmyy8mQEegvVn4GwdrcPFcDUiTT1Yz6zHtgLOv6gUOqDZTpw/FoiyEG62cSPfOUloISWNTmTt3QckMFRzdUWLfMHauMAsu/RknzJPWqSUbvw3q12FDalONxCchfY6XpGewBjDfj+Y/NKym7tDLcBjnDbMJRHHRPWwIqSs709dZHIdXDnL0PfJr07Uth3c1Fzb54sSLDWs7F8VXzvT1J36DumsbxBIrU+97HC4dKv8GQtE7+06htTJ6c3mAauXyJWBiu6Gtxu7/12E4VYZ497VUIQzKSHc/pfYxpKqLa1nZHCbDoOjQ8aBAaOA+wNgbbqAaOyDWKOL0lebKTxhvNBM3aTgv3BQ1H05BR+yE4qDrDPRq0UKo+j9wl7No8+e2QHlTo9SxEfHT/VnliEcDFe1pP3O1xHigGjzEK3NyS1Hq2EWZ+Et47bU3d3Gmu5q1EnxfTPi0WX6x4OV593ATyuOZLg8dKRgJ4MKO1tNkudc3kz13kPi7f4Xnjc9uDcgsLLFbkye6vhuMY5Lq4rDe7i1XFPgYawEvzPFDQjfAa255hr7oviE3QQJUA9POjd17FvVjRjh7ZBxtmRsfJNZysXQCUMq8n32dQ/0lrtwG0d74UcEpWQsGKGh1UFopBKU3ysFs5J9fLqNSvhad5fXIQsk/7z1alcs8wCu7vp+1x+QQAz8uF5Uf4AHKcjJ/KM597vERDaLPHi+qd25WgWFIPDC3nLcbRpN1xtIe+TIvWAtHYDghx48H+RTHkQjve/ZKttPkjvkvcPvnMZMCxYcge4z4hgSGZqV6YA7+vQhrp3TemwhyRg+ao+5KlM9tPqTq0AXYm3Tl0AuF8lCURKnwljVhr6UgJ/NkG8zzYLKSYoiRXFLTxknJdGPCZnj9EQUJe80nJH6qvWUCVdMFYb0ZkNIaCnFhlFYXA1EXTUcdgLGUmjhpbMfsj8CEf9wsEU4Lb8NuMTT1lB18hxQVwU8RD5WnIe0JnX6UASN+ZDbr1DgJSuX2T7posMeriSDE+rcXLNz/Q1t9tfBMCWu54fPmOuU+3sgpruwfryMav+/4GsAcaHLOHrlv/PRDj7CX9bwXgpNTdlhwIxedCIDf4EEZiU6qSJEZo+mzfkVWuGeSKwkMleIiWy7GqeHGbJFvav4soBivnVDrR3JLaBPJ0jOYGmSx/jS3dvfcu/Tfh4aixS5lMQW6VOQ9052fGF+doZnP0W+G4bL4HxGTqZhhml9OpakPeEQM07UlGstHACbQGND6R82meWrmauMfrWdPfPFHWa1yNb23YaIFT/gF0Skg2tUEQPUzDOjbAdczcrD4XPKoJs44Enbj+V4uyZx4p4LroKdtXaQ1rXyZ9xdVYCSY5kRxhHtXKihEqIDBjybUcQfIthtlIojN7gNIHUzsSxK+R8gp+O9Ro/WxqzHiwMgsd8tjo7BOm2G61q8C5J8bRZ6Hon6RxHK0876zGDnPWkYst/OKsqLOSUyMw11xhCD1Wt5ADBduZ3MD2tZuO1yQXUPLjqvc7wxLlOQXLgANbTAph1+UmLdhi6GtaMNxbJ7MMQU1mBeeb48aw8tqtuy60uM5vMSnvoLDUpqUhzibLujQ8aBAd+A+wNgbbz5rtf8ZYQhyyAE86JjLY2RuQNwRwyZ/fyIH98YklLaoThIUJN1/Tg57AIIQOWQcbTKxiG2a7v+KpkPIUEzoWL5aFEhJX6qwRuRvVFj/I97NKxX/c8MqnMFwNATqAvxl5e9If8xU5YZfjcXTEWLK0KKBFMvb+mLw79X0NOivRYRmU00WVULBS7QD1O29+e736g0RgP9JOoaPFvPmp5LrLTFYgp58LFeYzMUu7nQOcw7d6r1KxMnCQbMyeuvNU+uRLSZm+bEZCnSDi0MbxRCAwQQaMbDBZ31Xu6eauNvNI97udsratoeSF3kcHcdr7t/hW0R466Npyy//hwuk7fJ3JpW1rGKZt7juULZG1aakwYdeE8SfQQJGK7boUTdMGkd3Z2ScA0V/RPVWvji11DoMPAF0rfM9ypgp0l+GMFUcmERYHfkls5fkSC6xsZ2ze+BetEbKq3MghkqMup4Y8uizjGUc6/eK29Su4OsXd2wsdfP2UwZeDneGhqUToFJbF07YdI5hTp6xrhodiW3fYcBWDtRkqnYAU60AMlTWPWEbM48BX01RF5nmuRFsZaxyrhpvTRC7w+Hz00OPww+szelvgVBQLzyQDx+jfZREI0e53jGud9/VAvLT7hck8/0cQBeHLn7YcCSXMaj4rDKqTV2nsmQdUSaOpSAFhjIxgLf4QbsZuDEypRqKhbcauXPBopgyKtSldV3Yj57n7Ik8oHEC6HF+S2IoV0M3y8F+02KyAYXABPCyDKoRXxVoE3T7EkUE+L4fofGYQJkeGkWPVMjW5nQ+HaTmc/BUJxVcRIMGbMrHb/EQTWAGVLbyRlDJi3l/R1WvGbfnBunHwlxG9IVYQ7xCv36bcCOu/1fFGrwXMzzweQoXR74ssitftuHhOeZkxVh5O3DLxFojjjM3fkf9Qw1xgwJVTm4GI3GQiJs4Y/E4vyohvKX68ukO5SPbvc9YTN95E16e3LEv+zfY/xefm/i/GTqZHW3xMmCfPvuKHA7EKZCleHWPwvsDcJ0KOUjBeJoVJ8EjHP5WvIlyl/DQQA2H38EsyfwNG8ItxD0cN0CrwC1KZ263KsBLcQTtPtPwhFVnRQqu8YAFtwRwrgu8/N9Gsp/HK/taZdGMyW7f+B6m2UD3pQNaaLRMazahYVZS7MR8xE0o5NtbMPd/6w4t+D/2lX9COkLN+BexJ00PkLmhxdnJKWNGJDqsxa1SO/a8EAZv2uu4FLsjh6Uuj5OdT25X5olsUuujeSL2xslVbel8I+qrZqqDbU6dQwikhajQ8aBAhuA+wNhB+AblerlXsrIhjncaMphc4eFnERE1YxlSi+wAcnb0qTYpE3/+YrLgAkDgYgrrgHFTdCHtxoCUVgP2O5chAAMgbE23zs1tSw1O+7DzgkLateSN2EU8PYI69IjWtlgHX9F/culDfBUca5ORhNz0x6aPpF80qgHGfSfDKX8RQaH5oAE8xeSSnGOckF56hHxMrf/8WIwMpLTWmRVcZIeXiRPXmwIYM+Va9hFNi+pQzFTNsrnJdhutF/31pmfI5fgagjI7/yaWelaB947RuJ5Ad82+CCRpexGPlTr01CeN/ntDzrAGPCxGQBzYlmh713y9WRt1t2iwNtqgXKm835eDosbMzlcO1/sdZ+eV62SBfB33Q+jW509cx22txLahOAVuQgYlS5NW7gwuAxEVN0mCVBeygxuljVZawwrpdcHn36FAWEgahiPTWDFe6EPTLzR7hsEXjwUv1CJn2HwmhnlOXef0Bpaow3KXofcdmKJTbA1lD5k1taKvLEdg4wKUv3IhqFM52zRATRFE04FgrF5tckPsZoQZhmUOZzry/eK860+AT3TnRIc84fhsFwzHhhNXrg4pDQ5GNYQN/qCLmDsKdqGHONh4bpJsfJfIWWsQzWX0vhiAHDezpBsxKtAI6zBudk135NG+uxX/zSh34zh4Q+lbWjo76/dAFeURGJHhyl9WGo+0GLxz/CVsOsWq9sL7MFJod5U9EDoyMG6IQaH6dmGCTpElD1GsEjCNfn4INgrIVNbGCgdlQqBWkgKptwFe1pS/brXFA93feHvGGRixjI+6WZUYPs7HLnHKVSzf4s5iX30aSLFR3DpXsJj9OpYpk1x/rH/PoXamx90QTMlCRbqYRuTuRk/hEkhNN6bTCwMnP1OeHY6NZhzMhOhdad0z4rwmC2H3MOUUKCaiyHDQaQk2P+w/qY0czVniAQctiJXUU4nHOsJHKqBLapZKdU+IRulTEzmEkN4DYZkWTjRC7JZaE4DnZMo5yQ10EYB42OsadXS01bP4olB4wEyvFxIdahTh+nH6bqsZQL82LJ2J2TU6awhT/4Dr0vUg03P2w03STjXQIj/Ht/6L+KOTuT4x0++AOXM4pR5n9sddPEv9/X5nzHQgfV/fsx5Ma0fPzAWYABBXZXOhFjGvS2d0O/QgLJo0SaFZzzUA/ODlHZsSgwz9xnN3lRnjDFr8ET5sierMci4xmXTZknSUR9RK2vhEjKqFv8WF34UPKtqt+F1t6jYyBrykVDFYzZgPSd9f8Fdaou/QqbpexkaCHqFkD76DL+jQ8aBAleA+wNhG8Cng49bkMGkzLYlOcsY9AtD84uBu4pSfRMV+tqzYjivsKy56mXAdv1eBSCBdI8q/lbW4PlUhorf3OwutT7jVGT8tt4N+7pSYItWykcEDLzM5Q0giW1t3C3LAabWUc4mbHHhnY2Id+m83wDZiou9HdU96WfNV3qUnPZaJtsIv49udKFs88VQJ87Pgwuti5CpP0oRDtXIlqVBMvojVBF9b1od7RHVRXBoX3xZPEJWqF+XCk6UjDg1mZ6WoS8v/s/snNVydYPqArY87CkRUGiol+AUAcFzT4FXEwT4+jCFWLYjcfgE3wx1YvRFHppo4KgN7sY+BidOcmQnRgT99LboZisWM7zDx5iMDMNtQ/y4Ivt/943afeeq2gDTh5xGophaGk0Fms40H3An0gJg00LojcvcrqZhcSj8lnER65C3PmA0sQN50b6PcvrcapHlB8Y895d+Gb/YNM8fpufJBOHzXL+L+CwhBvmNCkbJvqzvTN7H37Ev+gV0kHL6hDwvXlWy3ijwv9sCAfBZfmoBQY2Qb4lKAsMn+RlY1KTImWDEpseJHz2+wIqB4kogUz22XuijJ6S7RIazVegYVuRGdpwLEE0W36RUmmC867MjgeJKGkaPPTdyjpbwBTpMCfy2pqkRaaeD6t5YXCEgpK33YZj0gEAI+6ytbmDE573QEUwxTMSCtx+p6/GQ9ZTx1O7snD/rf0KLd91Nf1iU2EMKpBjWwGUAoMUXuCX2pgHbWBuMEpGarhuz73clupC+XxdHUgceetbx+akHc5yXQXqJ254CQ+6EH+dgTixpozmzY5Bk/H9hZlHtDw/DG+g80pud+nU+7P9I/QYvmy5rKAEleWOEYSJs5Av27KuP0YZobe82eSegO3Wc/yD5dab22B0e0x7sJbOzhIdqszBmjIim4iAxBt75j9qTt7g9z6wrXr8S4aF2TfxLtxHazniO1f0xSIv4TJbiovh3bdJNhIlEUyhX+K2Z+LGumg3EUTYSMr/D1WPOVsP9Rx/MMz7hlh8x0SmDEEtjBPy2lmmL0UT5TvOgriDt9cgaBme5FH4CTMtxErL7fjFcvUTo/OIN1zTxmnUzOSmPPo7fmAOv9IljMCkwzgoGZYH5halRaUBcZs3IIBL+WP3/Q2hWtr08tbWISWLAjUa5V7D7LklIzPMMeszElFbfB/49AT6D2xlQz5mf17zEO8/Yy7TPZXXljU8k+BjVWwFD1MqzKl/frmDV8qc7bZ25kayqYXY7u+4eYBC5xvGCM4Yx3B4H/YZdZLV24e+jQ8aBApOA+wNgas16dkxPUIzj1kmHWbnwMg13hICDFHf2NXg3OQkOcgixaAnhRsrWuBHv/zYfcd1rt/uj9BqgUclls8GHMRi5etlWpSDCAsiTQvTQB5fEFprBkksIciN3eUi2kBFYGM7yQJMoCBx1GbyFJl78pzD7p5hcpcSkDy6OIWbLjbeoGUrPLZ7FV6hVtuDSHqUyzP3iknJ45SuTy1WkcC200Vuqks+PKpN5VKxLl/8MhXvrBhvMzHWbxGnWEPqVcWVvKXHFZmB88V0R/TMK9zzHd3Djztv7ksFQMh3j4wdq7WQJFO0yu8Zi0TE0MPD6/4mtJIM3cMXUcyEPk6cCUm2QE6cdK1Hi8rZ9MjnbeTdeRqmmRrKz4WP/a3ca15Fqyqs3D51ntTo4KjIam9FxkmA3xuZt+9lD/Jhxlygei0gOVXytdGEBPqxjE/YsJ0vCVDd9NBfX9yQezG1QX0F35S7lMd3Dah0TJVKAHhwCHrkR56pNbbXIlAsKiCymw5JMXusl04CE0oVbC6PJL+T8Izak33UPsrHV8afI9DqgO2eySOvGfRW1TifNU0RVnWK33k8clmjbUikmPVFOGoHCUWomfzL/ttisXjRiweUMBu1/x5joPmdd7VHDUQ4IHEWlA21WOcfMqBjp67t6wGZuBBw0jxMBHFbLwChhr9gz/flw8MxjFpLZ4jDzxbPo8WAYhZ6tOBEBPL1ns+pgp73ussdb6dGqGbvYlC9DLIgDj1zNp2gd+/fi/9i4pVainLrJQMlBLTrC8e4hvSu1xsywIe1Z4Oe3oWVsIrnrIsMQvC7JOyZ8wPksJNeLNqLdUzuldoACzY2fbBApv9BvjDlUHVYKrvofYEPkdyIhBm+evjnsqecWEpFdhvpUFKf0/80pXy+XiezWJX0nphYuWAOsmTlSX1/5szFrDI/FfrvSh0lNwB9JJWHjklwwNXTcUwpaO6dYn61ZPVJuutphI2LYbzeLk38wPCka4Kzpl4OGILCUCDwgXaw9P7njUkpuF6xUxZx6J96k5MAD9qmv1R2dpuh9wm3nUPdEFnJ+gLUCg5mcsq44HXKBrjNNrP9vyuZCHP4sQ+vdYobH2glCrQ7Ue8jriam+XjL3yU/24lyltzUF+fUIUWeBWCVvVB2Ca72s5ZfPiVurk6uJ6Ihqv9s50eIYnFrDgkCf/eyDTzxPl2U1JLyZafUrN0jFRfLZx3rHueqrHLO625deVmRWv0/Oe2jo1Mt1BNFhwaqNSkXe/eYnq4+Oft07/TJbZmKrYGdb0ZhAbmGjQ8aBAtCA+wNhDWAzZNj0wbe2CkpcJ4l8ZJqFhq3qA6NgUATCrJt1UB8GTfsCH758Onacj0MjAWFKsfF61C62a97DFRFCXZ20P6vpfwpnDpt5Nu9uleJ0Wj7CWhqVG3hCS2szSxq7IObi5QwyvEugMGLX8hvRPbz0FjZvUq5fWqKAkT4R54Wh/LnWwewO+GF7wwWiS+1rCU+fCeoakmOUyJzEApOfBiegYbCqbGdSNExxxtbCc3IcfCtCzq4l83lIDr7TGhetseaTfDOgDMrgBduILv0KFCtk8dQvsoahUa5JYF3MaBomUJt+noIYVb/4PfcwiXMaHBiz5fr+4AsWH7kpYUpMvXf4jFLH+bQ+orf/0hwf0MQwNiHzw1+ge6z/GIMCLbktyBNtNAZ8ckQ1k4rt3gBQAdxZ8JPfYs/WDTgP5viCY9nulGAsetoSpgri60JQ9NuB5i6quUBO2PK0zOTj54/tJNR3BorEsy0ATLL/d/ia1Hf1YLbO8OxWfU10HDnd278ImWQxPEM5OYz0Cquo4Lk1FdcoHEMrT8mj7okEn/lTT5k6pS34J1u8dm/a96AbTcoq5qQ+a9PcZ+1+60UK/ctW0UlNO/SQBA7iOgpcCsWXf6JdjvoJekdEK4ZJNNeoGi6QDVwVxZtU2H42bXBtA5EK5tL1AG3BZTnHv8w03k7xVy5LR6S6Jd8YrUXO0HEuIeijRCwhnbKkAuJvafS8lrdtA9CZaFXsX9C+dYkJiKAXR0we+98mOiyzLuupLwRH7QH2HjX1pno5dd1dTh7nZ+1ZAmlA3mHMUmgj6qTvNB7D6t6cA5aIaLIpEi+dgM5dKvnUdB6MTLaY05gWjRx6Yyg+6vglYCz9OrxrpWwE0cNtbYcA/JxDRYtUm+MB15GkXGj64edInoVx3T80QiKpVCChTt9dqkdqVZXL9mu0RJe4N8jjnRfw+wj2mzR76ZxzCe+FQ70PDXlGglLL8nyKU/gWGSiz1AmxCZpNtovnvi8vI+pbOg15csUqqJS8mg95LuBK2MYCDHpwxLSguQzIajbIk+3kjORFS5wf3u8rg1W4PaKenon5qV+URTazH+pvfTe98/dOtVEfRdGunrMh1S7ajjICSHH9yUZFhKzhUbx/usRX3u2qhuSqd9HimF6mdMH7u2nQMAvB/yiUZCKAP9GndhlFTCWvWHLuc66ZLXEMziVEYHJGYbsdG5zLiv3/ljdCMyIkokz8n7UM5BdoKIn1m+xp7wotxU8/7Fggt5FSaYeCu1rSvOsqYx0aObXTmnGSzzujQ8aBAwuA+wNhIq2fF9DMDyfcmcnf92wPADkKkybEamFypSikV9ods40fJX1OBdeAQLn4spN6nqkAq1k8MBlQumXNeJIIaD/KPB+pWz+oR5lBX48tYD6W2/amEpyzDQyTOhc41BAZUA6XKtoIUE0sk73YJMsBfIvsizpcfmevK9sBG3H9FWBdhEmiaSRbrwXmpTmeUsxRVTQ133IxoQRRF4+EJ8seE/ro9gTHS1pZbu8b6ruQaUD/CzXOLRdr3shoe8kDPb7BeXWlrWMtXqpYUWwZR4BkBAQWWPLBg/o9xc5MOiwEpqbOlr3QiqaYFzm2rVxWPR1N1dAOCxMtVhxFHMdX/KUGlOaqh6B0JXQponZ/iaW3VgdiEACcgVduNBqzdh3OAkyheAcUbRu2Kjmk8ubl4mdVmdHcVTYhwgy6CpouY8OtHIzg/WAt/zB0Supj9B27r+7CYXW0xct0wAfeSqv/+Ur73RbCismMmHdqwGt5QsE6+kf+4fda/5C+UCZlAlI3Em7Tpc1DNyvfL3905JNN/3+KGgC68AS6yWdx6bqO/7liexS1WfhGsHgJGnb/GayZB1k30UT/mxbACkhycq8nL2M+csvRamXtyY/oOh+wLnyMTIpQI25w49+HRVSjfX4dFEcekli9LSo05pYfOo6n3mzEJkq6Crdm2byBPMckdBwxjDnIlkjE+wkTglKXtIoDBWkiSaXMWKv44DWBmM/6Xwa+QSYLYeP4b4MtbXx5TgpWTLVanBR/zkAfmM+2WmwY8F3Kyw0To6EiEZ/eKMkJXBFjxnfUdMy+nVQsktWwCXsbHMW5S66amkB9bbqhzFhLRnx2BXKHlrH4SlM3ix91YNYt+fTAYSAeR7fpbZGzPqlVEQkfgPsmlQbDKJIKbcpO7fuVSb4+laLn+/e+jU/DXVtzQ6/F4YxamkVeDdxWJvtZWJcxv+A6jKW1vxQ5DqOVCheu28FY5IlISvRZjV/ROVgo2m4a38QhptFQCmw3ibhZZ6xXrWRcDc3JOZYi8YaRuyhso/jkCyzVBw5HYluZ/WDVEg3naCqARp361vSzYLtcxOf+cdDTxVIWWhZ9e7jL0IKakjNDH0y0SwuxiS8hx0YxcFpfkSgLo+yNHlu4qk6NOy/yb6pTH5+UTJPzeNXzSxh53ZdNfZ4iBd1mAZM68ac/b0OD4iaZ3OzpBs/++I+WNNEeeaXdiyBDtlxVxA3YkiUb+2U9wFlvTSpV2FtNlms0kzsHay5Zzdmd7n9aSiGGfMXj9/ga3WwtyTe8KIuZdPqpfJ6jQ8aBA0iA+wNhG4PSpHM5KDVI1Rm+rOr+Pu1n3T1BQwvNXxHcn1i0tJziwT/IIVD/d8ZH2YtlDxPHXI5JVKttteg0jzHxPwGDIg+Hpi8O5O2k84dtplDDtHiAmVXFGxuTgEIgn8Z+poXMQcpE9nVFrsOLPBhrrsKrpLNpUBygUkmYw5MgEClrCpYyvwT7DoAjq3QBn5cnsCWQgB8kAllgCZUAn9h53YAIrCArjyXP3rDXEhiZb4bJjvmgn6qy5DPlHZwVWDGqj9rTkjoHa3vNKu94oDP++BdRdf6wsv/OlmRcgcq2QMT2ep/3BBsXNoMul2gPCUUkTkY+KzzyGC16mSJII/ByyRoY+6JdiqdPfPTJQxIwmfW8nzvtLMLNK3EV3jWWnt10ZV+9fXK5BKl6jCFhWv9sWOl7yuZvr7ypHHsvW5mSJ969NmEiPxPNvI7o6Id7oUu1DUy4IUHIJh8kSteuGRg37rsROjSEb75gDd5cUw1obBCeK1lGKZzZdESFZvSn781t4mHCgoGri9mL44VVYMdOvOmb3YJkE0JBCh76QWoIRpKmPm/KyL3Keef1dLjmfzBtv/IrjQmZbAu9ytb3b5xKlp3a2P4y8UuQEW7YTXbsEnIxpR/GiaGF41fWrReozwiUgJAH7HtFQSQE0fxUQ80jm3ja7/VY/RGugxoxxXsHmP80dFvC6O60giySWR/Np+O4z/jEuV/Q7chorztaNJSEQQNJoQyx/LAW1KrRFvaU13s2OiTTiO9uqvtcIh5F7RQ64GKe4vSwOqjnMb9CrD1PTYExR9PqfQTDcjAy+DtEypu/HxuTyZI74wbAqFhmW9ox74hWB7PjWepwmDpChTs8gTJ8YRuENSixQgjUO6oL5IMF9/KlsqaDcJq0G1bvvzHmEzYTIgTMwJoUzY0kzDxCAuLWW/JnGKuVgygynFJdf5LqUYxMr0PMNFHOChqmbMrDA2N/X+fmYM+GjOntDEtNiule7LW2ZBFq1MxZm3tEIix5GK4BVuK3//Y31JAhep/wGHbuGeTW5H99MLQ7C/eXmhHWgiN6SYijy5EkQhyWMl+tCAUMbnw0it2+pG/J3D+j9Ezdiy8a4lrJBt5ljs/1hKXAit+pwdZR81UNkwlFAhSfRC3+fUD3nwqZ2FPvy1lDtr+wDTsokjMuZQkcHNqdq01BXRbzVfd6TzXCBZUQfWP3tATVwEtb4m8ZbqsWo3+rFaP6UmPwO7bw2SS5Qx8fBn+hksC8/fpu7h3qSqgFXDnH3r+U/YCVccSLIKncyaOO16SjQ8aBA4OA+wNhgvjKS7v+/mT9RbQUiip6D7zX1xbOeMs1aZ4IMPV6MhcRq/WJxzOocx5LswK2bpKSr8NU1rzcYcZxyMmqlsYG7yDW3VNDl4EsfLav1Fera/f6/HLKFWu9GrCqvDIRFviDAYCEzlPO1+BCKpFSAmMqPIYuX8BYo26gQoyxaD9zpOUYWGDdMJa7jVUBHDPwSwBhwfSqYixtgOX/p95omvrUniw80+4SLCNv608g2/RCERekQtRk7IETcxvuhGww4RYv2Z5LRgdPtHMhQqw6PeZwRhWYmqFtyAzvU197TGBJK2zLXRmK62+R0uxBGy++vdP+RwgBMmjpdJMIYD3Qj8XX7rngn/ieVZ0ab4ctwytQcRM5dHTlheGf6tBf5HFz45Wyhu1RMj/VjJHFDPX+YHkfP+A8FxURAppQdlNqPEqFO2ECbYEjm0clM5f6/NU15ErloUH6VfevJ38P8kkCrt+jWZauvTpK59IYhyQhnszMcqKBgtASH3p6O24BpMG9D/bkkbpxOBQq6XLFJ4jbqpMgtRIAbKRds+h8K+3hZ1KOkEQeGoRP3GBv7aElN2BK+NSXvqhu+XFZD5Pb8HEgMckWrE80Xini+Vm5zHQoVrTRBymFdsnAP6E/6k5/vhDJg8c6wCg1xay2+yuYLjI3ngX1sPs7WqthrWg9f9kJLOItGGIrEqtFltQ8DEbILlj6JwBTpPDI3TPgRASWH5C0tOC8E4Y3+UGUXUGCq2bfrTY7vLMDAN6t/wjApQYRpELFV0l6sAW1b5mAARUwbDzdXm/O/ynG7brHOmFpTRq+dbNzX8bqDp/JS3b/9yoq/IdLjUtAUykCyS4NGhtZNwlx8QxJYC3oYSD2bS151ZCvjPllPhA908B3h24e/8HhYKej+9DVYfySUlVv8lUXoIL1B++yVsHqqwiO+QlCElpy0+QlSX3btfxnJkdLmGXxxV5QJuKEWrJbOPDbPy6ZlOi90PMEE6yHB93BstwYyj27+tAAYHY1CyLL5zGMJXtBbaqPs0dMLIh08Bb/Elrm3YBiLNCQhDt4IccWSLJF9PjGsmIl/Jv3s+2Cfkdgbg5czW9oOlLUx4cVNJyXCbjWI0hvJXT1WM6GUJh9xf3XsU6VpdpcHjRvOMWKMYyJitrKMGFN1hqNHZKTCzLNTd1+d1BEsxvWJgH6M61PWfmHELsVrpkD7F+6nkA1pIJ3cCSTAiJtn4HeMqy5uTETc18w5sLN4LfguYHAsdqh+fsMuF1eoHDOceK/CaDbaVodDbdbCQO2MnijQ8aBA8CA+wNgLjdrenPWqmrEhcHrz3pii+OIm9lqmxqOwbLu+Mh04oOITgf934z6dEwWh1VL1s0SnHVjTFqLLrERcErTDL66tUzwqWD6DX3wEdsnbmCyAf4Ui92BFGiLH7GRN78lrL+riTOYmi5j0fLwqDaFVDqlyQtcCjqLogpdo+tO9aN/DOO16L2tFvZQCrZDu6QhN6bUGq3xsf/ffwnPfw4kNY6mURhOAL4oIvK0HcagIqGH+VBodq4gpe5H1YX6ruKkvqvcmxQ7Gg5V+mzw3rn0WCJGKVFwZoh/vIpRhMgcWuQUpgdPIc34kquCfHX3hskOg84eu5eW82MDEdF9/u94pvCCEsrCWvyP3ux7brb2BbRKQvgkqcPG3nPgCmFfz3HViV2yRgIPujXIU3c9rLNv3VhKYGAjcMBSrKtNqv9Z52Vt0GBqynWh+K5MbTd2wxU1hM10Zc7/X7LzH0QRuDv7uhIMl/brFkZgRlFE8dGQWJWd9ZqisoHP6RPP+EliOaCnJXj/KpHh3xYqnwplAnB9o6le9F4+RFExUyqL+UrAH0ynQwXJrsXjCvN5X7ua0CycCbrSgRBKxk0T/9+ZgJ0OlYQv77EJiRys7zMrgvTlpWrTcB4xA74twZDprUu/fUsHy9lmgLABJx06jz0Sy1J2d/ebbbykqIYzqqEr/pZJpeM6/atOetPVpmQRBkVADvtKQk0hYoFEmn19lrLQYWvMqzSh+7h5/PZhG+OWEDacuz2V+QP74I8nRHRMC/zbzmFWwfnPDZzYsaxDI2aas4KDaK1YpA/syLzp3SVJLc7hT1jSr9Iq5taZFTrwLhQ+AtixvjclGEUsgH5ymd2iXc10/RHfYRrJVMrJ3Ja5cezhGpeW24GZzAsYvj300nPjlG3es/eABc9KbEt1vV2hCaj9BrFXVGHnvkEcIykTeieSKs6aqdqy29kr6jUzgGFnTWEYEo2070Uwdu4l7Cn+oblFqorFil5Gsf8h70pHlwtOWH1I4SIXPn9rssiiWRkxnpbTnRpfeZw8F8zNl72vuea093Ml5p2dhffvkKPp5PXfP84dtLxYPfKwKaUe2ejNOcG0dnG2sq769P4PxboOTDiviqVSlIWPbd/PigD+T+PH2Q+j7wk/lwFbtmATKno+zttA9hUhFG654fQzUnbli6JvbUbv5m/qi4YR+fTs2uK/ixZgBoxpe0gLul2QxklITDl8jTN7UKGXj84S3X9XNUJnmmjje4UnuZaGUui98IDbBYcd3CDUqHosqb2ZPptnS0EIseWjQ8aBA/yA+wNgLTgGiGmh1mJ4WtAEibawQbVdLIRMh37qsYHf1b2LNnznuBE7vnkd00AU5a+kl06Rw4Ce+evIZIj07gfHSzBLWKqX5h21K1ps59AT5iqI9A3hCaremkI2DtdXD/HLUa2ydOMhM33dv3CiFSjbCVKqmb3CaxAgK4upERfmTvFBiSGFU6gL45eiibGuvPdZQrCSHU1BRfRj/WCekicFzVGHgmLCGNxmDEciEVbq7JJzqCFD+jKjdV646hHDBFOMGmeajNfKTWIluVK68F1SpiYJuTJJIgrGa+Wys1OqHJM/vDdA2+vUy74VTnFBTb4qOMYbjxIjD38ia8ddllJ7MN5louCU95s+DUL90VkY+/kx33/xgZddYjy2qptTvz6vaR4VxIHsXeyZ348PhUSZzsbGr+GfaDs4ORkNleWasYDLxWEg4kVcO9u+x3iMI597Je2PuKh11uVurdsg6X34KfQ+7uclirYtVjojMmU8eaD9Phe0tPiqW4QB/HVjejotHljkbchGPKWRNPH2csdbY96lmoZTS5XBsB5KugqB5QB/qGKCV0J5em6ijjUIzEzXh16oguOlZb+J+GJWYkLttOcd8BFm3OXp5Ef9sOEIbua4nwBrOFYtZvzGffhYxbn+ehhJlvI5APqDHB9mjG4vFltKsr/qOf/dG9Mk7Greb/ZXqP9Gh5zQkpOOff0UpCo/24H+m/OYK0X6aMyT6ZPgiAfV20H+N4j7Mfx1Bo6YSgCBSsiFjMq1By/71rKO2HTs+GPmZBV9cFQhZ+d09ABiazv7KXbISApcJZ9sdsmrkttsPdj9nA7lEoop5u7DytXyDBZIgBh7Y1dYnSp3d1+jSG8jYRh4mPuhSfTZQFmJR+t6jsu1DyzinjN1jsLVnudMSV+sQZJ8323ScSs+Iexx0QgAfIJS4Kbeyp9098tvdv5Of6nagwHfYK8HDuvfN6vQEm2R4L5RgycirKBTKpJt7pI7yRv1bCgtiOPtP1nB7LSZn3DKd5xGBATdOkKBCf1bTKe9UiL0XY+xkigRm+mQJ8+iMYkMnFrRHnoJjczXQuebb9X+SDul5HZybmYXTOfkJcMeyyIPKbkcUoAk8pZi/h7XEbRXcS7o3hPs4cmRJbc3etqn3RuKJ8FHRARaoiDTRply1KSZtCU7KtyYsdC8OET81pfQezR6uot1sUDEvPwZZ9AoWqtwq9DzdDgjjPaWBg5bdM5JkcBg3vTP2aAWodnx0wGdtqaZqQWAO5UJSFrzMxRl9OBJr7YY/qgLfzB3CLmjQ8aBBDiA+wNhIH13IONPmMsqjoDdO3MZsGvSH2lUPpFyAYQxsNar3SSS1qoTqT0T3TkBNpbNJj76zpVqAFP2daXjLZzL3LkJBySjLDacin+IgIqepfaUUDd50reZnCxKTRMp4QUByO6LvODWGxh15+HPVfn8Kn+UHDrt9d1y5nXVy7aSJvHzHCkv2ETDc/SFWUowVbbriwuD82ocQ6esCv7rkaav00ZVzp7jPW1t+NvXT8PT4EhyFvXKCOJw9/aAnnCGO86njPOOevfLW0y1NihZ76QxR3w3jBOSH9aFc6NDB6kYoRzlL8AFVraArh7LrXVwUDKBob4O3au0BeK1PZXWPusmX/JORmBeWtAZRlKo9NK9ygP3S/sDPI6D+A1xrchq3Odr4krmQ21k+qSJg99244szpLXdp0te0OPgUfotd18ZicEdL2EN06/80n88XIK2EdRAf5Sq+Ua+NZOwAZ+es7Rg+ObYRpzr7PIed0pMsqOCM3l9QtSAGicAWzwFS8Pnlg3HlfoBRX0sSktFLLLw2duj9LotzKhwBtBealPi7n28+69LK7khxZaT2rlTxipjiSF6x8Fdj8ov05aSMMbdn88v4n+eBH8gs6Juiu1+O8KcXK8JfOILOBoaS5tOZjqhbn+Yq2smr3lLEpNojii1EbLe5Omrd8Q8DTfOpaf1c8CBOpvfMk3FZEPTvaH6QiSGDKW/rT3/jyBFJ04yh5L91PuSxOtN5qpywcFvOKmLWTKByWLxjbIotzUIp3xfi5ZPpPvMHGdhbtbyn7jV7kzgP3ntFpHWJEkTbswznMvDEjrc/e4PxWCZks7GaAkf/bztDWyvgSF7khcH+q5qp91LOmle9sdEYSEbMihPhbZJ26wacPhsodirILmRl8qinhaBsFTDUImwELarh925pL/yt04UAEVS7qxeKweZomXwpC9ErWFAVgJnMh6iW5wHFUTYXivKolXMSsCWo8K9iaB7nionhf2h3nB3d1YAD76AqFwiNIP7XxTYBLvpU8D26bZS05UpKpLUURZv/BQMTTPGrFPnkkX7yPKj6c7GTbpw929ayXsSnsiyKbWDy6T2LsM5oqL5e1H0SPXX478KnXAl54CNEB9TzifWl9A1UDb3v8HmbwCvdpiu2rqKd80RGCcLarfRqBVQn8CQSMhJuBQ8PwOtiKseHeWIDSw7ho+5Ok/YmyYTSICCAqZH7LQmxBgsoTCceh/1oNCD0hC4bLpNXIJXT9AbpceMsIy+LC1GRGtC9Dw8w7cDUc+am5CbGThfk/b2uCujQ8aBBHOA+wNgPuvdDlw1obL54PgVhvCIw6DmPYQkhdR4M2cR32PQJI4PBGWxwjXtzjBOtmSKjLceBThntnTQRqPev6TTHvTxOFAxJE0Lk9cKaridq3EBgYVUqh6OZYInM1ToVNyDweNPvQZAkM4p+4NYwamZSUa/0GGuaxAw/2NiyBjSxrgxHz2jbeBm7peSZs2a7BHuxOprTde6LmTjncd0tdjhrreLrJm/4xGGh0uVHbV3gFtWkO8gkVC5ho3RyPkiZdTLpKbHGicmdlQ/9dIzJcdb/yHAA5uzlXApx9UbL0WoBGgX7Zp/dgQjFGnrQ/7PJ3W9tUY8kfD/Z/NmUIx5J1/00af46QwJd2gvG0ZxOtEs5MBQcFQ4WOzlzQ9q8CNeYHbdZhTbMbWTlDUL+F3kvB/Z9IV/f3rLSQUFzQgfgrvVkkgT8mENgxGQzblw6Oayyq9e2Pa7kk+4H+2e9cK1mCv85YomlDjjvkeR5B3T6EagyqL91ygjYtXsYRQf+IXc7GUwc1GxGqz9XQToisnCvCROALVFmHCwJMGA0J9QBa1knTgHd4cLdiDCKMpdCQQH6rAVYAFz0W/zYZkc0Sq75J3LgNSpjUSEqukDSw2GkJrqtUCP0AQ8ZVS+gQP3PJXUlBzJNaClcT9p7j25LpUls6SnMDCSdyEbD0VFVwOmVUkEg76DWYHlwArGlUB4Jpem+CkvkHnyiK1r1WNBUG9UNEeDkjHHzPsEakw2Q+NLaVzZe/fcW6hehANGPhdncHhEYJBScH8aaBl1uO+eJw9jO9W73ID4NIpMnvvt8eJ4iiYql0h00YEuc0/5o8Vm77ThlnGfZos33QhHrEnwHBZ5HcJ6ZGdmYEOxtHo2aLSTmX8OZpqdXbtRXoPwpLr+5D5+ULa09eyygvK4/BaOb69lZaGbrBDzl7j8p0xKQab0bHqZjqqT/nNxG9HR+IVMX02nN6ExCnRBATWnRtUkHM4SZssPpBW2AjLzxdKjS+1oKl2LoZmrw4XdPtn+sf/VqXkJD8t+fx+gs3R7CogSjfMKoJQ2Th3i97fCpgfP91pbIjUULCRScXXuLMdN3bcJOvcOnV3RrVSChp50T3iTHwNfnx199Ql4PwHkLQ4FWeCZcZ+gdnKtdbFVARe6ZQ9lzP05OcvsXMSBZ9PhG84u+kvU8w0xx0w1A0fwlZg+oiTuwdWrIZMXj1S1QUQomjRF9Q/Oza5AgIILS/hT6e6iZU6r1h+psvz+05iexGKVCFZSGeEz73le2dTaHmlhejmaQoOKCfk4aLGjQ8aBBK+A+wNgas1jI6K12na/0062SomSQz7ggXY2KxTHLPi/FAGV+jQ3DAbdhZ9Pzlg0DdMs86wutoLn44K94tOMdpYYr5kySeYenXjGib6dDrzEwaTTZ2jUOu5ANF0wQZXu/oj6U0dxMuzU/zrxXAaUIoD9GJ4lzfkUlyPGnt0nsaN/fe5wr8gl1JFvKzDqEJVPkZMe4XQ1JFAc6Iri+52Pc9qkjvTXoXv3IY7Lhr9A6wnLLJai53ACAlmS/DTaBzFko0AcLiTtOCwdprRX8bIoYVV4IWWfmz7VJ0NY+2Sg/EK8tqqWCOioQ7PBZdO/fzpn+aZsxZ5LsVqQRLd8tWaOYIMaH4nUs83ULIMNahw0QPHA7JNzmtETcNPeGVFLLQ+4WsgqFGTP5oldDbajHnu4A1VZhYwzjL7TGdqIBIwcmT+s4H/m2WEbhQcSALBYp/ITtoLlgdKop3ntITwEJlexYAYThjU9HxUrA7nzOL+adCywI3rT87xYrBf8OoT5CPk+9UiKJMgVySY0f2IgvbSH71gVChyY12E3CTNArvrg3nuY2EgiWtdhw1GkdvCIsFL0gWKWAu/PnYKogbGOFtpuNK22TrKZAhGJvQvDhFjlM6caC4iq5TdUZE4MjuX786zo00BsSIpAfoeD6UBvkiA2krDQXImO7WJr07WzddOhR7izVJZemQvb1Eri391BPz11nMlOCnPcDlKFAYaLpbuv+yc+ESXb6DYjmyLA8vXtrvfzj+lY5jSYnFNjP/39TRwUsZfRbxgzEDja4NFxh1QE9OqeGxK8mBTfld01bGwXIRLTcHhlRojnC0eqPEQwjCsJT6VJ8C3DlP/9oR7Qqh3JIzFT1B0jYGqn1d5V40h/S/qQep+FaLfOGhFCYJH3H6Tc4OG222FuEldPdBPsBiT/a219UH3T+28j3eL7ODFzFUKpf3Zrkll5FjnoTQwn4kJMYN6ZqtnxjbnypJWrYZUHIp/UMPlVHccaX3iMPPF+NxGo66Cj2TjBOPd26xcMzsyh1R0VCnUh7sEhX9bO34fzLIAiCzd1D9UKjcEKg5tZAFFvODwwZtkpFbmmN+pdKb+1GNot88Ry7cG8qirHrhI1bcs9bLJwfJpB6OdSTuvlpaJ3l9iNGCrmyK5n+3RA0ccmkFhfuHch10jnoflrt9auHLvPpnqLYX5kFwH62h7twm3lx6vf7u0M3xyG48Iob15Jb/ryCxn5HVnEgFC8ULW9lmpg3/RWWXihIMCrFs80b3nwFU/5O9pIY9amYjs4/Dg9UVACupCjQ8aBBOuA+wNhIB6VbId5ajHjY5pUqBwAXX9iggQHFnYGM4Xr6HJtDDUFkWYzXKnXramK8QIlygFFal5oKRrl3hDsewb4Wt/W+YWnk2KGecXkY7+FhXPnEEP+n53lKBBjqqUeu+WCEXGqfS4p1E4uZ7lyrTpk9NfkXQPHNztO3UgeBUmIyUPBYWTCJuFxvR79oxB4SGDGeqJuOdeAv08OvpB4qk9ymSv6fMHCkx/cNePeptxje/WSC6VyiYTO80BL11TjtGJn4moy1/SD+CyZUNCVXz9bQ0/bRgT99Syie1hp8WoBMbjA7IlSxyGArOSpydrir1GCVJsd9NIFj/AqG+TGsd615BkREmgnzCRTKldV11oTcunruYqhxZDEZkzipbjMp42L0nz97NppVkpGZQzbcF9JzJaHdugHjW54uxs/CDa9afrOOWECdlrIFR2m2Vp/4WpOvMrzS/fSIoWKDG1O3yzpg8ZM8duAljNDrBrBQLW6YjyWUoI/C7SGCc2BFCK/ODzXVqRVb9fnsQQGdaWq4GfuhuzOAE3GI4FL+FFGIhSbuB7uwmbJfeyayz7Ecs3AIF2d7W5KjRjKIWKErhmRJlzUtLDQWsm7B1utjl2UGB7kL/muJT4MvzKzThUwUGC8LipvaQTXdcjHq3ssrnwnGEHdA8w57vo2AZO1HHr03DOWEecFhL/wqxwC1Ev58zSP08Tr//vcz2EK5Dmh8rZi3KQxAPCFly9ZXzjSFgt4yDum4OiPy2bSnhQfoGkVUaNLjHOzdtiMzN+F9e6VME9WP1OP0rPbvdCN9apSRMFMOXMb6HvoR6vvEgQNa6OI4mrih2gNXAaEeAm6X7r6LB1U+XCCGyUjYRrRTonU0Ia8Jxj4QyVA4Mth6uHGuDsvZVKglY5Y2CbnTMQYitUfyZszP99AuEcB6QX7GyZjs/XiAP32e+6UXOeJhuPXbML/tiSaodsgXqT7ERJbJirubReYVKjaa8TPhgqlUfNfKbl1kyJNo1NnQoRSXC7br0WFBrt8m4MrUuRjpLbzodWLzrIHZvLqZxiX9zOkfXbOjzEf5swxmnf1+g9UA366KLxXsyNurAboblxAB0kwbf1+9wWOajh3SCDoOPk+5tuX9SBxQMWSxsFJlxKzJtO48K3sx6gfM5bA5rVj1SdSUOEbVdrXotuAS6d2uUcmLRkqIX3mMsAUvCNzXXPIefYiT2p+wQYabFA0sbRaWRNJZUmA/EAry7OrOnWLd9vS9xCE9Iq1ifbgkZMYUYaK9lUayb0V+Fk/aGEj8eejQ8aBBSeA+wNev2XU9QFtqJptqNP1T36ms2ChPQzc+JKO/rbwtLetVbIbFJKWKxAT+2zLOUdINSqo+g+bG7fDPqltllB0Zu6wZIK4uy7Fr3srInPtS74t/RnqbKi2fqAS6WivP07ymNqYaLTGcIjtNHdxg5zGujyfG5Ymn1/UN91i+MnEAc/ZIY2kMS/LrHKCzMfOb8ZdLFtNMexreVxRlJp3IBQfJMGczC/fbZNYP5X2zw2fmJxKa/ww5Nm6zKxB7/lPtm3FqTcq/UhDVEiMJC0/ZwvDMBnz3wh1A8JmMTARJt4xDybTLfX3YGE+JuVxydLIsMNrfQrH3XHGwM+lAUAl6adHVA0qVNxYGAQn9SPpG9jqKwghUKieDkBrvSSRupN6vTASWqA3P4SnH3cKF3J/SSwdDnQLDDUtXAiSs5odtvqVsAK8aWAuN8mvfM01OsmJpTq1XCLmBBmQ2SxVHJIlaJmDZe7ZOiIaQ0H7ngolxAXRSzM8HTAZM11+L4kdE6z83uf2cinLMNi9niUO4aI9HC9qBXkWd126zr47FaE/v8WWXSXIcCFdzVa/MBfuyXFIoQODwhGfJNQ5RPfpSFokvCQdqcToEsvOSQzhalD2Y5T68x7zaYJPsuK7RJ/CzppoMZYYPouQqk5fyoxoT2ZOErTgX1EhLJWvHP1+4/0eWx6e0EvQG8rtmFsodT1mUGPfDcyq/oCieFDepprawJjd35guE2bUxKN8RjNoNPDh8iKLX96wUxXZL+I8ZcuahkSyX/FrVkhjrPU/cIhWc5Ttv6Ahu7YR/YZmKainF50mIGgYKoVigaT/0fK6qKSQ/cag8V203QxGao1UUa3umw2iQZTgZdZRYGsSTlnbh4MPsL6VGRBBbL5uMcjyyxoATyqK5l7V6MJk6dxlsUuzzsYyxg8rCZZVnkFaePelZgUtJKZJ21LtGShNSn85kY4mlGW4X6c6j6T0efSbYNiZPnYKC54lJDE9H9DZhRecx3puDUEFcbojdxnQ8Vv14xOj4EHUrEFadKDkfxkVCT6iCsmUlJN/xwOYvFtR3Z7diQmK6WwBP54J1HuYHOwrMBeUJjVtCPFu6iLMki2E+LUkW/a4gJvFQjrfotf+n3Xn7TQBmQUYGfhkr6qM7pUcitW0q7IvhHLVLeorpwWQlyQ1PZZ36nGUJA6rM7dpQnBK1bO47w/DMexRmjaHkDmMbAE9J8TkdSdolTKafybQt59MU+0AOfgccxq6Uhskaj/OSv6n8KpUfbcDM6NHtt85vnsaKo6Dh+C+6nmjQ8aBBWOA+wNhDdVGCn78P7cj5jKTNuT8obm/0qrE+9LqrqKGf47tqsVtzF4XvGHPjNsv98G1VflwQmeo0AazydKdLSh+NLug4GPLTYq6Wrmd3jXgbQRnmqrLt8SpE+Vvd3T7XT1qUBUtu7YsTY94cWjlDdLlkG1KTKRTbmzI/DzargzmTIn/tIYwVa1Mf/Q8ne8Zp0Fk8+GSPzJqs4gb/Ki3r1fTIMWWySh4inr5IG3R26PGuoUGMERfA0W3UNZu2re24kJ1OWD6eiVahcsEwo3DEds1JlKv6t7LZfuRj7Z9a0yXpScD7SWWJfNbFM63HaywWKYvsETVIIsi/IH8LC97xVWMVMfZrFSIoY9jiSGf77bDuraC9/HOR04PzqBMZ4FHSalD2gZzMV2whPz5C6EoydAlh6OaaRpDXWmXdJ1QeUACTa21BWAugAK6JjNSOHq8Q3AEuI+wNmRv6fbdvxPiwkuvk60hujEoqQVH38nmB4vvuUZhKpQxUMYcmDvv3WySpEwuaA6kHp1ycBSMxkmVqfLcthfDvjIKB8hVj9rYKo7+6CrU23BRjWtX5z3TlAoJuOcmbCePZ8Zq3EI6jSmg+0jr0QEUKKAEdE6Ol5Qy1f341I27Q+ndvTrryceIk0TR3noh0XWL7S2YknWR0T+M8Kp1lFs9nUUUrZ4b6MiKxSwgbbiWOgjQxpCXWTUICJA9f1b4RFfRnCa+PpfSxv/GwmndsezJ8CqgeOI5xJBfDmwEF0+L4NASHWjvl4MZFgxyN8GCcAjl3nyYbdHn/CdDkH8D/UjezhL58SpRbnYufTVqDD4vx6t+bVuJjWYz5mXv98oQKeUIjJ2wXAy3KAyTaXrBcE5RYTXomCVUi7qJJgIgDXs3zYCoEOSC9jCq9WsDwsRJ3L9Y4GUGkG9fvbsEfrCWx+hGlC4Pv11JJQnuqUZxTIEji28zygEnIBXQimB14k2vfw3/Hb9ATJTGVkEsZkJXNGApeMHoDCAhCvveAvvx9xASAPvcbAVLOsRLH/z2RRCu6nHFWe5O/L7fGtEZPt2wiQNBNfACRx9JRJBJtbiifKwgJ/qlOAwbvT22XFifL68q4PtB36a6sgrtMlea3yGw1ocLd9GJmqE6WvDb2i5+1JXiuoG3VJjy55qYlfghOMuUDwAlOaJcjw31afxKnM3ZFcpHYUwfQQ1Z5AvGe81xTLZBpxBq1Fihu7YocRID0QLqbQgG8Y/FCf3VIhqYQ8LqPEMy6U8wFu6kGvzcCr71z6T2H99mF+JNCy4J/Yk/Yfn9yaujQ8aBBaCA+wNgLdfw04C66ULjyA8CmCGEARLsVRjxj4UYBrJH7uJsJwFS/Ct35Qg7eCmRaHMAB9qiKfqMYWMMc8zASyVdUi/Fbz4QppCtcROfr2DbJYG1rJ3rGbTdaTGtdQgO17vJInCwBUZ1i0NuQm3gRnrk6EGCJcnpgrE864giaiN6Udy1pWpT/36hV5ojs7F/p+o4/qqYuZprTY/AoS3VLs/fbgpjVHtDj6EEzfZjspZqo+yMWlyA6UFFe098pc91HRjjIj6GzkR0TrXnPTNF2CgSwuBmpsKiBLMkPPtvaD0AHf25vl7BGYro72iUizd/a6ZSp6z7hiqXMijr+1gsUj1pvSMbvleCUAgxbpH8UqPiNsDU1Nmddao4ROstnFRPwKO3W4wV7kjjx9r0zzmAdr5F29C6Q0tlXiH6FRxJe0VUZvnaQmA7OBhTHjILgpbIArarXt6QzN71O/aqsqvZwx55ujgFZCZVKd1t7Lxq6dpnQ9GeOVHKt48ymGW9jDGHR3ZeCq+oH3QmrY/QzbbSPuKSsMfVhSEcJINfFnrZvl56HMB18wciwvda9cBW10eQnVAjR37VNoH53KrdzK9P+3P+E8SVonuo0ruIa4IsL93/l4+Wtyy7OvpF9Dahj7mofFV0hgml/cw7r0obgeFu8D4s2FZYZireFfJDOfG7gpn5LrrxYJmsb7TK27Y+Wab0nIyrBM2Bzl/ZivW0AZBehfL7lUZnsRp36soPBU/BhpSkd1l+yx3vsYbDVEsD5YZvjGq4XDVh44CZYlicoYKuylfqemKRzpH6FUo6EQX159Zjnq+iRgl2DpOHU2nUAgcr1ovwUV4XAvo44CzCmg+3P5SPpd9GYD41E3CJ8MoY1MIQG6fWRID87Tg9nbhJ53UoluNz0MpwMaQreXR0nPYp2Nm+pI9iNJ1sgx07/tOFX0o+L7BBgm5+wmDe3I9WmgcLPKxwJfUqwTLnYj/tuQoNMUKHjBTe83VvVevRebe9TyTm3x50qvNfRBpqoae0VxO9f65/2TVlEUR3wfs2LoxFEN7slXzdSmzYTg/I3a4g5W/NQw83mmA8Fta0o7d9rK/bX+d/bi8rCQJ+NNODIjYmoI7rKIBboelmOjc2W60wWOBGTFt4z0o5EfGpbtDSkFEM+s3ZH2sHgmee3smdXaTP98Zh3gowak3wsVMkRp+8Sg51NR3grVHBXlIwwCpMQqOffOVBK0+LscQC3ylm6KeB50NOW//I4TavsXkHgAD430vNVqiaNZpc4tEVPz+rPVbbeLKR616jQ8aBBdyA+wNhB0fMQIQ9tmWGVSHjqNDuIKVin24kQVRX2zenRLFok8HGcE+rzotJ0B1hyVR6/CCw7rfbeVpTr1b2u5U+6YXzhB/2pI+4Qk9t9SVKCTIDTKaCOOBfSYTYgKbM/DC7d0gQ7qouWSQfJr7Q7EmoN9K3kYxPrGDr2qgKLh0NZ7MeB4iLBc6PZ4a5NPCEkKYWF03Oa3rABRu0G0QRdavT96LHL1BamCQRRlaVMfnatODN52csVwmB0EK/uxGeZRX5CTDsuXAIN5o/O1j8e4J1uSRidnpLjdg6kGIoVhq/lDZEP4H2hkLZE2UvWzLlhiq7QQtjaMyo+gDHDpTvvb3+0r1BIfxBUbUV1pTxLUc7IuA4qRdcfXN69aGwKKhNjHRaLkBPP00PJQwebV7f2JsdyIZinadx4GZ36AtghFcZLcfTF2A2OHLSsBNDjzdlmGJAkNkNzf/bJh0tCu/I6WklW1LsIhdcx3fyHEOcXBNlZPbYNZoMHl2BXdX4A8Pa4qUrmZisONzIGJlSqP8kWzwhGxpFv9D+BcvHelOacJZhZtyquk3d2Hh6rWUiksHlsPGgP7y2l1m9co7h2TN3n1stF5Lt+ejPppa2Qqha6jzdFu83K8XecWXn/oeEDeM/sToHGnawnKLMP1EuvWsFGed/91hjkB3UQESc7c+KeP4gS37iAuHMxW2MgC3ski2pBh9am1dyYy2OE17IxVyPxU/VZRYzGtyEfydO3uGfYoZe2pWYxP7x49Dmm76827PsbNsOa+I0bxz26aYakox64ooca9b35Io5sHrvZvQFknxs1E9jCvDv8rr5Dovsp/qzkxbXLMQV+PzjoMv6mM3E8SSSqisVYBN2ZYCTraYwuIAh3wGJrSqfDVNw+5yTPjj3j6wChpvicBYRH5iBX2pahLyY8uGbSHgKbKU6IytnpcihxoTuE0SDvfIEPaZcs8AoRN19j4X22AUHcuvjzXLsCeW6VZXzZlXB4TVDkcmg64o/FrONS1XYkrgNhoUwNbmBPGPLfvoEZoI0M7hUemGnLiFgHv+SCw6rA8wcodZzLuho2Jx4bDnZFnJxMe5p0FFnDErk4JoMPq/IAYc9cvsMr1VhUIJ52KQE6k7219Vkxx0Y4QkLWzgKNm79/GTHufW/c+A3sBQodz2BKfhluhaVEml2mBjkQM9cN3Osbp5PiSDzo/FX0AA7/79pWKzP4kuxSyanFRYClwAqr2Q/QwHzJ+pIvBVIKE4ELtOooji/H9EziUf2lBYaE+liLN4MXqc/XbMaiMqjQ8aBBheA+wNhDYH1kWN6J51R1OlZFtZat7wGLsthCFr7yuVrqC4PixtcPqMuz71cSRxyQWMgMPJJIV3dZGsSA8ZApetDpD36q9U9bo6K5lVxPy8cjZOifrJ/zW0Osabzik0FGcrhJOcFBXhUr0Ax3919drOotIWw0r+6umoABpsxS4UzpWlQkz6cY18alWhbCto+N9mVTVM68JR3vC/nht6YwkmEQzjmY/UjW73uYoTZgebb9gvkUQQCDztA2CbaNHJrtCXEi6XVKDKjjysCFu7OXUrFlL/I633uc5LL8VzTu2/ZMXpabUqzISMtfEmY0/BTrRGu3izWROG7oFrSYMJqrSZHwU+65OSO8ABDPFqw3dhcfPhyRPNELj0q8w2bNBns7J2tTpt47y14184rc3fpM/C+tp9JsrlZSDk6j6sedebBbMip7GENz5nqgJnu+52zgeGTiUAhZgnUYZZJCGpQaS+maFL2GYWyng44A7uu3/s13hVPXe06mKOSW3CF/BK3zUefsET3THAXge1O4riSiWu4zdvvveFCtW7zQ6ZTSVVt6KVdNcyfiXrFMlBltWP33bn/KNUWuhUYMj6UciL5wbcG2PnC1qR3umAPCQLIoXGzxgibouQf9vVfFiHwC5mOFDjMqKdmF1COOFV9acHSJo5e/jp+gyGJC8f/wnJ1H31+RCacV5VjVKTp7pdpQ77qJhGM+KTsN2t47bQCxKbK7PFxLZ4miaTSBdOtztfEnV1MYyeCfXbQzQg3e/9nLau3zzi0F1CDDxxSMNcveUqryxAhmZG+wRoxxQC2c6FStDcPTspHDxYgGNo6DVRgWulABpiBM2+Yn5EhozSxHB2VRimksHlHYRuBEkAvkTuxYC3No8RwW3I9PBpm/WatsdtmKXGqyrB8Vj6KvPSUSU07lwerCPDgzdDlc7WypbTQxQijDZqPKEtkH3Muh0HlAiaYxkC5Ak9YZ3QreeeFJnoX2FRYMNzzV1cKkCAjPTqwHXTCkm3045KStcyJQrR7rd7q4D/5/n2tY9se0qTZzpiS9r/T8O0HXHF3l4nkJxZN/2OuipB4LzmJChgX5c4IX324UdyNJg6VJKNpdYcnBzl2fgqNA5ybAT0sgYe3C/kgI9pgZxyMu/8cw8iJ+VIcB3ExPk3P4eU61tCca3sDzn4CHAzI0U1u3WxcToAXpzYpt/w2pTRyYzK3dOV53cirGrmFdnzdrIXQ5h3E7+ntIQ74J+ftYKXrTZhUxIyjPj7muum9FTfVRe+U/165E6qW+5YgBp+ghPujQ8aBBlSA+wNhIGq4baQAyWF7n9e1hZIAQgs+95IiWrTx510BV3r4+SbyLLL2QIwXWbWKsHd0KzN7ZOh+rJ6P+ayfxkLyan0ScVT6mInQk9xrNFA6BESSJdFoOPh4Fg4kcEefkN6U1z5T9ljgv2P0Ph6IyeaiOt3CvCcAd8CFPUuq5hOpyh0HvEsdI3Kg0e+udKsOo+rKlagfUwjjhGu4axYkuBWMI82w1thk08ZHOWbQcOFiWH0HgyIyTdPqaremxBVmLrXTd+cdWjRWQ83XV5wKZ4xNdvhW1plOH9Q541stRTkdyAF5FgBZOJ8o/aoB8nbtM5W0HEA0P96144nSKOYj/8m67IEvKsJwAhPoIKJZI9es3sLiNu1ISYnwWHBbyyJv2zL/7f5moQTbmjwu+t/tCE+rpwHHGuxoMC/7PA0MdPuOJkVqrWEVIUqi72YQ8ZOES3Oam3NnmrQDcWovJ8QpscY12Fm0yOIc4S72dDqsfPylkza7+Qo0Fxj+6mTBIuCFF/yksBeR+O/mOqiokdGJcJ3zsy3lQL22bBtnOJ/9hb1S4Ee+AzGRI8Yy7Lr9XRg3zeCbCLoO1R5mH8tBPlOG+B5vrxxsMq+zxiJBqgPMaDxV15eMPxVn9eOb0l/jAJMQd5GDIj/CgwO4SowKhE5iUchvRwC8q+SjHNCFp7mVW91cvx6VoaazljlZ4oBr07OT8PcAMraiS+vDwz8bXbhTiOvyU7GsEMq2rLAtbelB6TetTTecr/XkLuwjJsfG+d01KKwdkX/3b7XXVccMgW5eW5s94q19juubCgF6JOTfifGN2CStbkHp6aVYLNHHHv2HDKQ1wkv+yPo/SiweGSvanrw9zSmPYSB5u0kQl9aPdk2we6N88ob9Nodmw6CCtSkL2fIPIh8Y3o72/GHQdU2mSdlC58VME24+hajsuuKy89ND6KMdnkpJZpqf5pGp8b7AhRHuPsvsIW54qI2RGz0KuASu5kkixRuAgnsmyv22JuTQpaDpZOUaj/CPAD/09HuUX1x8OvxyTVXL6Dx0j8jKz3oPTHM6HIFiqWNcJk1gaffoG4a4OLok5FUpGnrcn92Wbg5Hlz0uuWp6qsdvRYA9ZtG6DZ0YKu4ybqlJtpXh0E8ewbbDx+8wKCpf8GP1B3y8KdHNRfSftjW7Wb5cEhF2HOkJpt0vaf5AwuQnsJ0jNEQR+sD0tFgWGQ9bcShaHjovn7Wrk1VpU3/CIOdk+IGB/4GF6XYlF2l0to/ScqsgZ/7Ga47x+DBuyw2ai5+aPoQz6vEoImKjQ8aBBpCA+wNhGLpRl9DpVC9PpmtreqiQeAieajbuPjqovduQltvsZfLm414K0Nh5FNrNjJNM23VDFvXucWidEelSVlyBK3fNxj/rVoQ/msqnlN9AIxbcISevj/TzGrVrfYuc7vbajphHMpAY+V1aid1r1+vmVJ5JDdfROiNUYjUIzUFILGQrTUzT+vMcrWig+UzoGIqxNJhiUjuKGsnw2ehAlGf+wUNBiQaVxivTkf5dw683xqQwH7tBm7PkPLoOXaChda9QR2DRPkPLLde4ODT7oRH00JJW0m9/CA3NvIkKzlrhh2iVfuqVeD3ES84opdAWnsPJULYqVGzzI+WGnGMswdSXG8PGOH9ft986Hz0gjIu/cxkU98Js5nloAT6lu6PyCb5pmwoWZdG601eh+dhJ/W2HDphrEv6F4/i08Zf7fX0TLRTp/GEbvViQyV56D5qj0HzATdClypnF7Y6FcdymQ9s7uzYjcWjiY1+jupASJqtA/OAFlzAhZs2rex3I9J2sim5WPfZAfy2anPU94CG80DIzwjnJ2Eli1UC26jKdzCfb50bPXfToMip9LYc+KpXVlj+4IAzEXsdedc9jQXgTQhcuIcqY0nfkx8roen23Qb9gVLl+roZr00xXxs+UI5+08ok6ezOTUB0yC9yAu7+uB77xKnre1SPpA/QUQsnmxTqJcom4M3EiOptHOcHlhbMf4Z2WJWRcXipnSFMhUxjIkq8FgCpZStFsjHfRd2CYVGmRQg0YjEDdEh5FaiviXmUkL3fpor25LnqKgNzy5nMt0drhuwFZVDSEA5t0X/+FJ5nCjOouIazBHOiGOCICKru+6V+UoSQU32ma6eQrGoDcIvziQBP9YGsQAYVk3WjOrT4XYbEkuyvqOGe2G5u3/9By9EJjhF0NTV7GywfMV0oUJo5p0WbKGW3IvmzaThnv1Jvin+S2eYVt+QuycFxt5cz6g2VepbilTqzMAooVlruFFSJ8fb/EqT88F884XX3Fx1jHnZjP/I9PadUH55BVnRlGPn8DlJQvqFdMJ9k2G6dOsaCZ4/Jn0emo9ls3r78dCzYSgxflDpfZ2ioz+N7kPqeVvdIyYvqrWbqg+sdnDzb4s9RRncS4Unm4upHGJdmXBDKVykkywKMT31CRWGusWdeUUlHQrnicikWbhF7Y/wY2v0/+Ca49DKbBuaNGwbGH03Pmyvf3uE2Ug12zHAgYXRH9SRVuHxXpcqpkt5CF9OMr+Y8wuKMXc93PTD2wf1bV4fRcKLQNHWjXGmvCQZatPNdjdRssTwujQ8aBBsyA+wNhgbHq6/0XYzthbTJQoLwx1+qi5TYwa7uAlXUIllbKcz6OA4HfwIEY5wuW5bjr0cxBMCxMLvMegryt56uKUsYw9yaC98HoUcPnbExNrUN0tgxf/YHJAAn8UmYuIEDZPeK8BbYTJDbfjpKmeaxnRSaAuNNcIVG+cCCNf4ctzVf0UrfTQ0gu+w+XJOznlSSl00Lvxsvw9GtpB5ARQrrODGSF1c2xXRX8628h2tMF21yLs2rmPWb1pJ1jXBkJtBtRQwf0QWJGu16FKs4BufOk5vBPNlc2xOde95Xg1wAZBqwfshwuyW6WH1VtL/wA1NZKxj/faHIruJiYs/jEBlsmCawJbb2T8nCPlnGHlGLBJ0aSLJhHWIvh98wBIv5oqBo7ZslIFuX600pcIYfMFKTNW/usCggi7yD25Bb7cV1AxQiEt2As7Y6aC0vgcs1zc47l6+KYcY2cMVoMn3vvG9sjDSh8U91dqYiqHgAYb882niZktim2r3fvWuKs/pIF9Ytt0dbNtB9Nd+cjBDrWA5ueVRzDqI3MEjrEAI2mviWB2WvWZPPzt8/12kykqfaO7R48wAjN/pWnFHfWXiNB2p1+601kqkK166C/9fjQaKrUvHg1iZe3oeVezfe8HKZoZ5Ashbdc/QD1BgwSritNaaqfQUKP2hT/AnMVHAJhA6GSZG+da1pFdbVr+g0q0/443JR/PnCSRslnD7OL4sR8+sC1TbBHwBSZdYhSCjOpAg//WYxpGSz3+LDsBTmCAjAof+bEOXccplPuZmSAkOUrUXcg3eqSUUU/1/KfnrUBwHq+NY2A8kC2KQXCvVDgb1o5bDfOfL2Q4Uunm7MPmQxmKtkY5vbiYRt+mKNDe0iMrrXYtumUQv6lsdVXApqU9JHHleSyulVe9Bz4Mrqp6kpPHo2jVxt98EO9X4x0EYjdSofKo85KaRtSrCe5wKVb4p/HrUSanAKiM4m35DfxeQFgnOX63r/rvg27EuHzVmm+61O1ksxAXC9vXdt6Uq9I2BQpdykJRWPC2MYF6noAbxdNOSgv/L987MF8t4i2xoArnUSENmxrZhEIScmQMarKrBJXV4Zw2S6GKsUQkEjA/agIWGIBvlNkhquzBHvrj+Gzn8krReQSbj4e3Q8LCkkIQ0ziaSnnIPeO4OeDVWdhrO6iubGhnJUriHni029dEsfYKw1GBVYzpUJbGlPfdQIB60/UZrSM4m6cfxro3mOdxftJOcCf5m70acm/GXKYvtaCg/CmGqX6XqWjQNH/Ix4cXWiTB3f15OyjQ8aBBwiA+wNgLO0IFCp1HG02StqA8vEAozxLlU2h+Px8y6L0ix1/sf53UOo7ddUqNINqXl6Fqh+luPR0OkZABj/Q21vbB5yiD1b+vha8PwdLArF76Rj5KWGHzVWbw79EgYqhePKuuYRsT0JtRv+qSa1PK+LJwKeKWNni6c344QLY3epLdWOqBH7QvE3B7xi26HK62tybe7kXgKRgHeHo8BBpZRFQQB2DQVu3jNFqIeNSgmUpASF8UuxLBPUVrzx9RKV/NWbaLdYBQHezeJ0Ywxc4tTUk0JR7VFp1ou9i9+fof+aGT4E+MZL8U+XMN1FUzy2Zlb4qwwd2zKa8QW2wlH7GvKO7mAFuF7CrsVeFIOLgYVkG2O4QuWQG+JvfpHM7skw2b0LEad+ts+tvQXa6N2cpZY1W0Ek+fWmXHp4HV4XdOB7anup0wGBtaeVi4UdL8Rz8JswZ6HxbPxzGR1XLofesKMwkP7nyplKJECT95umVo01e2Dt/dkkPvUP7AwCbcVwx4B70aUAavllZEnNCrzvxCsIxRndqvXQuDCed5He2/3QC/Xa0UR3deKkLpSkE27wDTR13EQEXV9R8y5dZtyRrJXFCsuXWBHcvzpDQlubTbIyH32ncJs3mzhaJC5wlqr69lBdXMcF6oAuThfM5YCuCh7Pv6aQCUIw7CTId9zsmfyuaRR5dzT/DVhWW3gM37szOmykmK0MdreC3lDWWmO2aIKpR3+5uj7vYBzaRRZcAgaxKcHEc+4lF7DNRzyiwD2FEBfe9cmyhLk4TmfdPl235TQmwFJYY12sTfHDTVW9vnyOU4+ENOJfo9qYzPuCSGsawmXyg/BLj+haoUCu3i2qprk17cVm7YGrVO9w1n07f/tuDRieRZP5ZU8ptYoWT4JBwBeb5HNB5qqRsDRaNHLrnhcu16ppL614eKuKUT5Tydg9TIsmG/UC7ihjlNAfgGWVwGJv6riiEoW1Rx491kiJ8C7huyFbRqYneHY2harKEwYRCTnVSpC7uRh+V+KuuzmYyyqYoyb0xRahJETI6wCvxjQR7YsXhihxEXnwzcOA7F2wVbkZ6EzCGbRR0ZR+NYoKD+gZ7S8pfmt+nUKx+Ebd09zR3MDP4pTpmuBJ3RzdCNgIkMFhrq4qoAwWxyWbnJdBVkBian+scZi0oryJYqRRCNMtHv6QAzoWo6QAQPCOHkX9S0QbNVwEMW7lxwrVNRmBckKSUwq4ZjnVccJh+ePp0BpGWF+CikdbxOjIv6aSfa+iCc5xOVT15X16pkjC7D2hXPcRiZ7WjQ8aBB0SA+wNgL8JOdh9NETd7CJK/fjOor/GBfHTF50qZOADfR8+W2DmuFTk12xhTdhxsPLZjbIseDAVlJDRm1Kr/Qe+ufa6P7x9AuyWc9graMOspPoDzeZ2Xm3CIEtx+0fdSTKJUHX/wZio4Wxzz7qoivE9a6bRALfgUND9fEIyxiEvOf/DCyVnx+s8RbGtBS2GdHJqwSiR2Qh/oe8ZhO8u/1i4CU32Q8dvsoGm8QnmE9OQPpmOyz0IWErylEgE8pRRZimUJCB4pPkiExYzYSNZh7thA7sRnYcH9MHR+RCkIOO6aFZ4yHsTEpk/MO0qcioLtKW5yVmcJlWRQQyjOfkFXH9F7PLWDeqaMxqV0C43hq8oKxlCSXf3Xy83x+5CWfKOkOh/Ey8XY/1kXhqdbtRT9PC9nVrRO4BwnkUSLYYscqGS3WRB8xmAwNR/Ca16ynj6dmTyJNNq/gvHOo4duLIlM2K+f4BPl7/EJ1+QWoaSe2vIkKCuOX5CEjNdW4diD9sLHbsMFWjOW31v3/D9Lpj1ACdyazhht043fVp2xnotmbF19wKdHagiMUCNVf2Im6GgRYmhYEDZJJ0ZjhE0AKEHeesaedbGGzFIAMqYhg42j7FJ7ZF074dchQvNtoyce737IvPvUKBah5/WtG74HifYHnzYQLNIAt6/01P3QILdhk6+dGSHIFK3nbmNy+xG2N60ETcD7jum2B7LRxyx27yY4d+SdDKygflwAQ0f0WLwE8gRxzhiZ7l56xPVA5oj7bVIjrsboLRiN33gu3d7wRcfvHJpyLY4idJ5rRoYPJcDo+9g8XlEhlIz4MecebbLdSr2vNd3lgT5lZxvF8sMaijyB968QiZ8pYC5MXLaSSrEf/kVzFdSz7FPDCOlEWoDiWL/1Or31mV5dMawotbWfwyA6yl18nHz6vWXaobxa/25DBkMBETlG+jvtrFP+BbbTwhfaqhiDkTgI3Bk6bX2kdXRwVT8rAjeA5xWSUZPHW70D/QgzdIGCgvy6wYvQECXjpvNIgHw1hBoz0Ji9+1MrJ+ebIvqW6H+C18y/MPzd2EqQ6tSR1v6ldYpf2UtbGUwB+OKRKdU9LW9kDV+ZEpMQCSBCqZ+lqobP9frYDebMXA0M7pybS4yJ1UN57RmTD+5aGLAy2YW6pcx93ItgiGLTjujKA7giK9HGeaNq/o76IuZPEJBsf0jJAl8v5JzqyVBI0S1R04i56boZx+ZhWVOVUyTgRbqYY1iJBfiVLADrpLEugy1ZreF+wi2utlsshT8sOVZHWRLmSOCjQ8aBB3+A+wNgLPit82zk0bEp6wXftv4cLoRYAmmn7mZtuU3R9x6e/pmWNOkkELMns+W/sFiFn4bG5Ipiz2e2auDuXXF+O4spIM2ZZ37wsg+wg7TUFQFH8YDlNvmBzpM7ia2seZCdjlEca0bweX+aqSZ+7BdQMRGysK7zfbPbOBAGNM+Oy9OHVkUShbhIjkBdlG0smGdh3uBzIuxJL+I8N1gf7mC/Kn06Bo1hHjdikclcJ4T5K8xUB1uS7MV1oVVbDqCxrC+pH0WuZWU497uyPWiLYEefQmsRm/10VLrrcGxtz9ztMBwk7xccOWowxskVc9wnHzX90EIezW2d6iai2MSlJsHdbP7B0cNhBDNw9OGQh8XQPobx/qbx8u+7ADRYF39HP3EF2WuP44OW7QOQaO+x/QKj8naiWcxrf4pCEhoxmzlO0M+GCGEhI4EePeh5RnqKeK/ffsQYGGRGICHJdHOl6TVkGYttr7mSANsuP4luBfv22PyB1IQrnuxp+3CYwLBKDuL2ORyxmsaMJwiO2Va5XG4Rb8fIuHZMs6MW+XKFsGBb+tihZgW3lnv9LHOW4U3/boFgDvpkmzHu8fwXDjxBlXC1qRzf99WYiRb69Jf9vi74C7ev6++YJirAiMVSuXp/SJhPIyCvGPYtY/hw3VZwi10x68UjOPT7W4LUp37cYLUacxzW83xfZwRKjucnTk7IlHfsQlgaaIj/5+69vHKaQS4+r8xQqRfj6DPrgdi3kWbIXLxxWbe4pFSkE2/DgIfT+qxmnUcvhkMyqQdHy9P6B0xEV7iC8fFeZenrU4QUJ0oTuhIAscOSsrzpIOOSsm4Fz4yL/sdSh84HjKc1rQ0rP++sBAyPYQ0jpoL0+84L9dB3T95hJpPN3YALj3WxK3mW4dBfJYRPvmH4c8JTNvMsRFAGOWrmjRaDlG9PQPF0azeTuzxzYU7zoTxwLXDQDe68obVpTG4Ql1GAqww7YV9XwrIzI2pVDV88l4vW/4jN7X1o8PlcpSc6LsbyIPy2wKlwrhaXDUsgfjLd/UQSrMI3OjAXuvp/MQFtKUgcZXTHxQq1ffU4liVn/Us03MWNj/zAtgq7J+a92JeeVWwx/33Z9VnnUAWvfsRMY8XPwyIWXofSSXgJnMsLmY+3FtHsWfNe6EcTJ5IXgUaduEtn3E8YhxLhBh7H0B7iMKdXvLrW7FHLFHo6jTxHw91tHxnIK4RuxsJQJHjTiujYNFUdShi70gH9egFkqK1r0vVnhctPL2FNF3i95QzlpwG7ODOaPNgVlQ/Wd/ejQ8aBB7uA+wNgMDA7KisYlhQh/EhBD25nSybwQ57YHeF786rL9Jehw2CawhZc57hcPcq6/5KT/YB747Oh30zcdxq7SMacrp6m+MV3K8tQDiLToDPH2G6RhL/m3VwADbfykDt6rNkcrmmBG8ymhG9ZdLUCclt/n0PMrAy3hoUi3HBx/9UFg6KCR/qIAO1eXOCpLOOkZSFakO7H9rDhYjx2PMGhlGjCKs5MYd5vUqDtXs9cRTdZivEkTN7sAwNqB3dUndfnmBCehwHsh+AGdS/DNNOVzFO4Pk/0RqiR52pdkgGLvAeoubGkz5F8xYnwONvA91fFGHlcVixccsPcquKKtQRvHZi2pJEcnECLM4/pGi7bQn/sUaZPUngoJEgos7j2qlgfUSnNDL+ACgV4D2WLOZ5RTX9hEWQeQZ5GLylne5tgq3qAVbWaTGECeIFKlALr3CysrgSmDGfPN8yN7QKMDOqz1oHW4YWqc89CWIoKVKudVbeddYHg8ol/F2gaFzrYzOTiz+/jtVeULXBiNSyzoJkaLO/97254heLX0Nf6f0DHXzyQN2NNpnvISCxpxCZ/2ssTOcJZ1AwrTPI00PfM7ig2idEnMLhf7t49BVgEq6Av+Cm56Sz/+YdpLN5OTPM35WT0D+TDYTnUJbyeqo3JmseWHqHitmxQ/e+OZWRNAyyZ8C1IyXu9hFKYg0tM5Ys8O6r3+12LKgtMOhPrvW7O40Al7GkEBsGquxBhYZu2zWcY+pF9zGxcQ1vlogLSO9UpE0A5OYbK5BSrxLB1WSYXvayJlCQBbTecw56TUuUdj4RjG+6TBR/KyOBBwdDvgC6NlJZKeG5b5s6/T41dJiquikvW/IgBHAUHYDA/k+sOF1iu9ufL93iCWJep94yLQXIE1/x1/oY8k479NPfOPRRm/K3OQYF9p9yH2Bm9I4uR6vNxk0ua0OoLwYDzRYUVm47R4iOpVLaxl6kb8PRr+dQz0moBkjTCaA6+2Tg9kmInjeKBRuva+1XySInrm31yZmbPU/vEWcdM1DRCoY8IBDQ23MnqrXGn8Xoh6ko8Y2LglGx/8Em4iGzgaScVL32FLx91EW2+yzIRD1PVErMPsXbxCxmt9lmtaYQMxcXa9FPgjrUsj8sre7PK2b18ISGKKRkJyoqisRpNz11RAXvCIdZNEHAyNPm8EwfKaljlBA3HVro//VCMsqszR+QXTHlNky8Rwk5t4S1XP4YfIOa8pJRHVPtMmMHQcAvF8agVKhnTHor1hNKeUpNH12NkCOeDn4uuCzcFHYymLgujQ8aBB/eA+wNgLgL/117vNcUBdIteSf80VjqzWjQioBiDI4YC1Mh6+ML5QQzypdNIVXb07pC8H0v6JsuPfu3QKPgXnUEJmvsxCfanv3TgEAaP7Z1vedPayQck9+PMK+UWouqgnsOIE272f6HtLuZKJvgZeGf+mbfC/lFEcIWfpGozJ9RekI8oWIjPlT5Fq8xGH2ueXN+XBWGVg0BksBq0raGdp1PoSh7o00vfQmjPi+ycXvflsoQ4i7FwCNr05uXZh87D0+wDcItUOW5gvrBK094Q5mOs6IANB4VUPxWWrTozmlziyCj262DpM9phJeUq8wktqiljnVJepZBHLtrjt0m9ehhJhNuoKk5fPFmRVtizmUEN8k751Wb8UY2WMWUZv7phQ99JeNa3nUoPGqJg/qacVeDtPH/sKfjitu3AlikLpD4lowxmS2ECxn9iEC649oFODMg8Hw1pf5fSN9CORMd411r8rnn1edLGBVNfIVR39d5ZF4piVTa+QCMmWnXs1+JWCq9RHbzMTcpgPbMPMRuo1NaWuZxMS3mdy3E6c3hu4JpJVtVY2fWwIFBrzFIu9ghojd4GiuFIbL0mEyCEL2w123/gwBjJhZSq6sqhKD1Hwtw5Hji+/0m98k/GSDJc3kNz+h+kvbpqQez7FJPOByw1EWfDrI+yj7tHY4EJmM4L+KnbtFIOtmva7phODKLpXLFq1GcEIWEDAvQPObV60E72FbZvtwT32ll5ANtlxQC3c09VlQxD3UQVaFV2isd6XLBSz3+X2BS1i1lFat6wrYePjKrJW0yWQoxJ1dz7VUxx68pP6tJXfYNfu4vCjegKXke5RGKUiFOelbdkNjaajUK5eNzo4bRaYQE+6W0ONFDZAk0bWB51nWBFvyjYpMlFOnvJjnjH/Wex1uWA1tw0PkxB9780brfxK7e+L+Yc7xoWYu7bsLeAh0kaMAZN7421eQZD6ei80FYu7hJ4k2o3AsxbeC9VvImvkHc7Qo5430862MjygRbHCasxSy46UgwaTmu6dqNeXZNFj9P44sMAE99gN1MIJRkV5OQUGMvxI2zh5lzmz91k2g1Zb1LVgoRDUsUtPBSGtODnWyOnwk09fFdGX7xSphGmq/j59PoNr9Zcb4PfDYkjAQliOUG0crK1AZHRl7Ssxyb0FctjEnLxFwPjnu+CT+M4KA2K72U9FqHSn6NGH9HHHSW3CpUrYRc/pcRIPVcgdOfzDdBY6733qE1IZ7sJtyJNMh5XPKUxlym1EdEAj1VK0zmCvxVrsFQbSrV9aJnqcNajQ8aBCDSA+wNhDdMZ8pmMrOHLLJiMmUhKVnwe8m0V6QWa5fw/Fj/+O+eIZwrMcLy69morgV2ivEQhQ3yy0Y/d5cIN82DbVs5i3vnqxKxqqTZ8jDEO2kFZvqi5QyV+vuW5rWIW+vjmDOFWzLGfL6lLr336lGbkx8U4tBsfZ0XODBUsTaueiS09LFaTyVe37XTtYagfQKWn6TEm86eOZCNFIOR6zibRljGfXi2sadRKoH2vJX7KmRLCuixe4jbE54S+bRrpwYWDqEsVO9YxhVejdpuBjqP/icA2urjhexfpyQHbvbs2lIKL4wgwnPugBxiLH12z2M89KEKEr/gOMfUagdTgRPYrKsTnRHvnLtJJyaboiHLx3DWT/1te9FVkFqJCHIa0oIEe7iRY5B3N+cUYFHKyjcp4d7bQNZeR3EN/EyoJ8mwPbhiqzWENW2tF9kJIgzwul6TTJar848wcdr/uq3IUAQl6h6ZCe5hyG8cgRa04JGfCjYHth/MWRFB9eZii6DtxAAD9Cg2M7rZZ3eweKYoCcOOiRmRRl0yhWcrD5t618CxhrMnqZnjEYN7XZx0aJpfPWP0YKZX20a68QxQ0t/Rh88qAdJR2C7uJ36U98hSO8MuPlHo8eEas8QhRrWj1i4/7LugUkD+2ysqTtE8BrJ+h61JwVIzhlAQBhMwYE/ak68lmTmeew+2jIMPevuZr8LEAstDCTU0y24JwX4nbC4lo1c7ZaozrCekztefBObw4tV1LGNZFLyzLMtxpfa4I09cPnJPQsyFjvLROkA9BFN9+anSybx12S1jeYc2CaUC6+dIDi8gJ53egT9cbt6462qxG2ALOzR6IprGV3KC4BerXA4PKp/vNYQ6UAIXCZD6oF33t87PMo5ncvE+jNivSlbCJTLDni0k3r1XzhUrGuWzEbZvcBt4+5K5lxfsRNeis6D321dmksH95gH2Js9ASfgq4qdZRu7QzXN3ywOw8gQXxbLZs6+YFO4Kxs7LCC/GU6mT+JjtNa0JNvwH4YEAxPwg9k1kaPX9Fu2D5sulaQN2p9NOtuX1w9vkttf0bnaaPanSdss36GzwQYI38JVQuDomJCJWWwQdNFwRVWpfqrJm8IKSxnCCGYj6aYUDM5L63rz8hkzvrdwYNpZ2jy6Js0t+Z1cnm6l3majF2kL8Nh0J3uY8DzM1OQT/wGgw9Z0jgSyUQFHxVshRnQ8w6huYI6BDnhWhhG9tX3wAfr70uBLpE2rf0hYtpoNJTbV5E/nCp/vtcB+RPYf/6hCW3EhLAPXdjb2Mm4ImjQ8aBCG+A+wNhfnjLHJzzePrGAs1MupZMjnLm+S3UC/LfuI7ahTNxc8Dsqe9xTHEy47B7wpzPC3efCWcHAE2FCjFI5Rq5qDTrcdl6w8RjzUbNp4kPR9KhcL+5QMHI7nHhtfz0X6uxjO9yqMN9VcL1Qr2OWZ55uta1sSW/RIFwK1kMLfuqcZadGsh6FonCX3Aipw7uCkqGpV7FVNj1Ggl4Ozi5K6HMU41QPfkkZWaLw0MS1hSpqxc0Bh6pPZIr/eX6kZNSBv/iY5v0trH8p0jB4Cabt8uk2X7xV6inRLQ2GSDwzxQ0ZJuhxpMZlUvobJM95o+Smd/fpT95QoQBXRUAdmmO5uwQkeR4Pjrl14I7NbIj0Ftcajygi2oOMpYpFiH3JSmAAQxnGRjdcunhf87egJvAebhZlXK8bVfSRRqpSwksbznO4FNzd2A/vnVxiPMn78516ceunKv3LQ493eVXIYGY/fXoMFRgfbPKrJgyy8QWEVHPWieUoresayUtqxIhTrK12YcgXqoCC82qXqkciJIxrcHHNhlFFknqPYniVz+wbteWLmCaEagc6777LgBMR6TBgo9kXwb/RrZtn3ssDmncM3qGAnHeIMzaoJnRwaiiCGeLahTbMpxFii4vZ4aVn5DzWeMtCxTvdDujiyHOpJBib7Lf54fFt2SCw1NXU4/59Z/YpZU1JRT+va1r/juwraRVZk+l0o/TaVeYmDt0fIe5BCzL2qvZrFu2xdQiCNr8ThWYsadBx/W7XhQ2QgKSeIxGJnBMEJHQD1FfjOmKSLiNfm15xYEUyoSEyM2cN0QLM5HkJkOlmFrz2jS4ZK4U9bdSSsE0w1NriercKRznHR+W1m8P1/OQYC0S1LiAok5rIj4zS7ip9Pipbxv3hRIRaTNqyXeCc/JR61G/+DlO6qhLTQEvlYdY6+eX7v7hdxGHCAGqz32OBvNyX4E+d8cRE8sYTZxh+b9lenjMrWiQoHe5RNzatw5xbywu1K1J1tdEhPcCDfq//j3EtC5vO9fxji3gAqtxmQ8fWKo9LSP4sMw92Ho47QjXKeDp+RRlr0Z5wdZ6wLDa5bFJIzZ7VS8ICHHnTXL+GWDPX5SuTSYUK0HYMO8+hKGZB55NBjxdJfmuIkB3zqP/aApcYa0umfwHHVawGecoqdkel41ZqQl08DkFZHDJhGNdw0crngQjtELcFbbZuYm+LFhKmX7hvZQPOl7ko50vw+VQ4mj1yEnx96RsivZJCyT7zOBobhfSBH/i643U/wUD7DoOn1tkXLW7TZblN1MujCSjQ8aBCKuA+wNhAruXb8lGwz6L/n+8s4celcqLXib7CpAQDdf7obLLhcRO9rcIpfeRd1tqG21AbHKURSBtfqN4rNE8nWXSlWZyljcxeH0lMu0DDjupkuIqfbjLxIKZ6YNVHv8yv5RKpNGErYWPP1gE5jnGf6vQuaVMVko9A0comHsCWsi1tp1MffUSl3e5aeoWtsvHB53QwtBi3Je7RATxe0jMUXCJGvNHvgCg0AcABMGPhXIVjeiJGVKd5/so8Bua26JhczRwbufQ7KwOZHdh2uVL0jXnbYUc3d0x6mJlWPeSvZVI86iblfAu2AUn+DrNC48n6y0z47E7SS6fn8QSFMYWYE5Q7QZF9kP3YTe+w25Auo9xokd4OTPP7Oe02MVYtT7nZNEqDFUgfte8nvrckipANHDSXJe6p1r3q/tnxBj7Zxuq70UFXWAt2Wvp4+deLnQhOvFh3mAkn/wUY5SJaLFYO3BvJvQuVziUh5q0/uUsj9Lqa8YqCCXdawWn29iDcohRTeuXSHFiqAQpffULyLTHt8BKHZ39CxGEnHDbOrx6CY31c4esjEO6FfmgidcmRKvo2Nd345+mgcxSO2HtB+Ez9uyMtV77sOGWfGexc+tZJ3rRVn99voXfK9mIg9nIpDPkX00eqi6kbVDNSkIRnWP3RyLFjU7tXtjKWNYr08f03qydr0fOKZyrAhsAbdcj4/N1VSskEG2mpOQlqVesjEJVxo0Rqp5uZfDKU5tN4O7IWA3zl9avxfLyIWmcDPWhVm/q4BnTDYHG7ij/yZHt6zsM3WEFurvroo2Us6ZMrvEY9i9hAYHaz4AVfIFNurHR4lZje2r8BIQ43v/Ho471Gh+EP7zsjnLaYGqV/WJRGQnPjeGkNb74HqRX5v8CTPTUtH/TgLqdc/HutpTDPb+0ecyjAjIrxrJONToAqAmKp2HYgqLRZjoD9sOJ4vLYlenMIgTBdKc38GVKbjJF8lwPiGuELVaGGuxDJ3BZcnPjWpMt9OkQXN708+Y9vVrwi8pkOOzn2tY1wERaqoAJzLdkDInfmQdEzNBHE7D5ziiVQDgR7zv+F/ekmyowp/AQpSVzNVJoQ9X07NAJ/x7j7bFDQtKpkE/JymbORjcvPqG2zZIEp74LERNacA7Niuukzndx8slCTQLXsr+qEGql4jzAdDreuPloJOKzSt+YDRM7+eL6YT4NyLAy32PbATpUi1zmB3GmGHQxPncWSCnjL3lhRcGJ51IAgEnm3Ur3sBJmDJijEWwrfGojtmI2XwVt5L6ZPXofqb4yO/qjQ8aBCOeA+wNgNVzs/uzBFOb2EjTd7Zga3fPqj0SdPoFlpL5O3p+7fDg+mUNE9SRgcbjoSl0+HgSo1ZjGhjkmQv2a9JKVaO3EvdIvNV0OneYjfICYvw/7kRw2wPAgz45bmB3r4RjW1m+udBy7HSfvjqFUJazThNQtlw9gGFPnK9AKIAX2n9C3+Avo8GGS7eBj2vb3Aus2Pk0kCX+KXWsgbgVOv0OrleVlzZFP+wCMef02WLprb4QlqnrTbdmUMcrfghVhI8TGrwwqPZ7ZE7LVulyXJuj7smxM5NO5b1V5GNiDkFx2v/674miH82aPuaOzrGBKYuT18KnGymxvelIkvLtjy8dcpVAQzn4KJTY6nlfTmfMw2Kt7KzURPQrkokWWvwzA9gRCYDq97zu8g+9qFs9I0KYFeOcmpQfh727as5n8Zx2wDtOAWGEgY+kNDmE+vN7WkQ/G7Z380n/bec+R9i2g1DvkygDE0OnovZmcjxRh1NxkmzIJvpKZZv4yX6D//mSKpsv2BcQZWZpt5BPTCj3gl2Y/kPZPKdajpsTor0dh+Ne8BBj0ccXHoHpgdG9ufR6RQRsv7eTDJ265jx6LZsVnO/rt+bCte3IFojAcGxHU33orvqBsRbNvkf8hozF3QBfyCeAbn9JA/YiY3WmQSDz76VA8RKvuD/s4h0+iiIYWA2GBycj64nRHZQd/0r9Vxq7pDj3iOvQZ3pXQGfYen+9y6TVNBA+dKiVAli00qXH03f21eQbOPS/AHaJu5/0dTr2KbRb+CFPUQuhEuEyu6qcnsK1bXsnyGBli9+TPtw2J2q17lmTb8/zV/WxCyFsIMFSkS9lBO+Ra8WlzoijSGU2qKw+E+ezfYQFAxRlAseVNAnRWNqD16PFoJ+IRSPhejcl2+Cq6Af6VFqEKBOkfs9DpVDlfaO/LvEq5WKswAfnZfmaAcl48CJ71+pcl5xXZbW14GvTvesrRNut/O2dvpHkp2i9f+JH6utfFd2iGDoE8TK6ppNtyHnvO4qoE5xABifoIJN5uHTNwwnYHOM1j8glAATPEFF+oLa/rDlx4POdmlNOjhRima/G3K12zCe6tlxVdBQbPjseFZg80pJvTVL7YbhfayFONpIQNP7v5iExSMQ6seJLTcaiYPMg+gIhuZ8qUFbJWYc19w1Hx7KehzTRHwvBPrqypiBuSxsvh2YL9TZ1MewBHhnaVgt6GGUe5sYpXg3NQlABSZY30knaOfAbZitTAoRmy9Civ6BWoHeaJdoZAgU/9jQ0b36tpH0geDogvhyPpsJWjQ8aBCSOA+wNgbZf+OChLN82q18nxgXWT3CFwpydlMNZ6n7ixgFtEjdgIq8KuLmyZTsre9RH9ORhPTdXwglmpfLTRsPATj/DTlsbV79y8b9dWZgY/vIBkG+Cy81tY/IEaUqZsQWHp84LVDf7wz9GWttOolK9lyK12KIKEnPpGWcoAxse9fnv7X3s+T2kTuyWHpYRRN9dIfslyB5XTOJrdRuDEp7Ohs/4GhMoHkX0YIa2v/RhCTsjhxE0dO6lxeOYVg/BTodbpb4EDRE7FfjazqneQuO6hrx+cpgC4LCg4KLdtaVid69d7Ovefcy2U183on39pjYMvnrqQjUyLwKEDitrODsfNehVSIIdaRbjuJdbSJKLpMnZzmWEdGqXSSd6HvcF8+Pl2AVvNyXL1aZr8fkaV7kreOpxCt+1HM5HIrIwZMPy8js9P/GBu2c2g+dhURFZ/sBrPvNj6uc9nGUCZmEoXU00/eOsYVG0+bIXLMd8YqiHfUP02/hHOnwf2wL0Dd9RjjBNCBJWJsTiOJEqZJf78jp13sJDn6Uxq1O4ohEFH/Eu+AaF00khW4OjsOO/txxUqq0Z2geSGGDQgF6MGJJrfh3aIzT0SaoN2QZgUy5gilQsOK4eJgXS6uCjGfFFfpC8vdt1hk/3R1BN9OoG2sJUFGi6dGvhNVkRqTlbS3qSDxMjV4pAOKLpjp94+1I3at9Nne6EKpd6olbfxD7AI0cOJivaeFvCT6VaB7lsmpl8TVtQaJD3DlAQF6WxiFxQQdOevoT07vWSpI6cvnwHw6GAPvWqg0c7IC5Al2HWluicSfyxiGjwsj7k7vJoQBZnNwhrfCfYAIOEUWFnLRROfGR3ZX3oif8J/YG65tcYyRpVJPvKpB6nZMRNN6uNg1DlD8vyRNytKUnM8zsUkf1AwDMPqDyh5DiWaUcnP1mfrNVA7B2KBnBuhAnRWrhwM9h5+TR8P4CEqVMYBoua9xn8pH/ZoSh+0k4IryZKF5M+lCTjhAGpFx9wbK2+CLI2Bxh4T2V/rNptdpVP23YQdN+2tm9AGiiWGj0ZnpQBv5AVcbcxgqeRZAAOXI9h2kHPiSdK7fYdFUQPIcBRsPNsRynFbX2/o5k3Yjj/sF2NQSwwo6yeEakzOl6ph3QV/T087Ldtdb9mLClHkUDq8SCHQqoBt0/bNDaFUI3L4q3rzxlTa2lwwDZOgeYnb4YUygaYKGAChXbKTa4GMRTIxvftII2EVfqWVhb0JVWgFBKTIApjqRqPel56DDv8NiJToHZ1mGO0tGTp39M56pTmjQ8aBCWCA+wNgLOh2QIIsQS5kXWpSkwbbREMB42dlDDCCMD8JrbF0BSvayIyoGZa10jfF4lEf6esZr01Czv5Qd8C+tSWWMnyMKbNmkM4pZOXSrGgzkQsUTmgeaRYTySY6zN8Vw72Mk2r9udE5CrtfTEPWycDCKxfMOBnl0A5QWnZn4SVOvxqGkhwkGiF3On0WhYU9lH7vq7NDajVfVVoH95GV88q4ks2FrPerjsoxBvA2nZBVbAIF5jlive0zyFABb3vDlSqzkHesaLXXefJEstetQqF3bRD0vcefPISfncT+puK/ynZNb7Cha+6rKyeyPU1vK6koD9s9DFmZG5IdKM518zqVolcBZQQKZyW5vWEoux4TVpUVq5C2PacB/RJ9foLQ7hm7PJqZlYCYQCcwBHX3/+k3cBayBBe7xre42xtRyD31tulInGBqlhUm00DdsAPBayKRbTy4E+UigvO8pWB/gH1JCBBIRJfer79XjBM6rtuDHf3lJij2r5hebXuAuFJ8ZXPOwuzj9NkrRHNrWXEFi0bq6WgvnbsENpXYKR+D4LFXqjYm7j5aBCveY+rFur975we/igrmUwI//SFY6CW7soiNJvi7gFKv5nhbECiSCHvkyzEpzMGj2i4gTayBoV94GlTpndpdGnOGDp9Jt9OXAvunPv5anOcBbq45VeO5wYOjNtabIejsr4oL4YzyJjQKBES+go7JRaS3AxqsmPpB0trSCEHijEvpoxR/NXyVsiPGPL9vPMlD/jus86vQToRjo54W36e4/YMAQ09IrT3eol9Rf/BVztfOUVXJmV4Rc7AkauhwnUTYJOKya7p2+q2lgG62Q/elviLl0BTxKk0W9NSK+Z89YQDXmvWINOMx9B8ml7VwsIZx/BfG4fSFOEimQ5JZeAnjfCJ6cAOquYA5kIlhvaT/bPkEkhD9z3558FhRz50CfU4DCqA54MOuGLncsFZy2dCx7S7cmDOypmuzjnlGUqfIzoJn18jiIf/OPHnbf7KxIltrrTM3IuRSx7BDlG2fwcstcfse+0UMBRH0zMA7nJlnXBVxgvYAUx0KcI7L/PCkffdGngzKCeKY5rxuYczUY1UaXqr4qw1L/kaIjm/MmVhiYfr1px0iK4kWMqKU1JqSaT6ngaw3o1U2RF2sWRAHmmYpX1JqtTDFR9I6HgCIjDXLdj8e8AIJNIoSS5plqToo54fKh/dVJkEO5bqp2cnUbLgGG4dDlU20luJQS3NgLbZhm2qoghaIvJh+LEKL6fOx+ZnpUZFjeAeLPMNQUDKftIGjQ8aBCZuA+wNgL/qIoGZWwMxVFGn4yIKqmaBxHCdn9TBH+qs8lzVJTUm1CHS7m2qTPcuDZSc4y0XPerL1Yy2Jclr2rBpC3A9gxlydO9cK5y4pFpv4IJJr6NMBN9dLeGGf9WuJlGQ/1EIvk4w0uqSDMCQZdu+1/LzAGKwo1s3LR0L9k2e0i5ffgHjtSYz3mEDE4mo5IaBcM6KnFt19A5NC4gqT11iwZ31k0GpwG6seUuvy4HD5umaUGtNNlk038aG7ZcnUxlNCbbxbxtN/5n1CAv7O88pq4uX+mDf8hoo0awHYtl24pccBgt/+wEAYvDsI0HZUeASv4qBS0QgubriJeCCfDIWnrUneMuMbQxbrPlVfjYN/iZMK7tAQCxssHoMexuSnlajyltoCXSPjuEAQclscy05q0dDdguMW+pYRjR4fhkUNTfm+1GEbnZzBM/dZ1Gdtxc++p3vD/EJJxpL2jxcId6ng41I2iXZn8Hw25ki/pLQjHxzKXTeFqVCCrfSHzMABMmWyA2bLPHQ9eihMHHbk4PpGe/EFY2iGnNopkRU3Y/eDU0QXBp4dcvmxFzwEbik+IAgvPmtX3bQlB5bWUBDPG4aSA5amVD1/sctHxIzxNnaFxPs2z/TmjK+44KhZlXeBw9+JMgABWAcD7XD5+IZ/tnaHb1UB6ajuY7P5JqlNi4wteNrihh6s7O/x4N90grIOu1W0RdvK3506KFG0awBZqj9O/ZucVu8YDfTzgKpYz2xHt+T4CSzo2FMIH3oxqoq+nmXpqsF67v3/T7yZRZ/6gY1AFxp6ZqXL3+VdR51wb9J0VO5EnuNv0oJFxDQMAsGimuHWe6s0VI/wGCsYGhm3HxFtpdlmYYMavkiIbOcKpDtfYtT8LxrnKXb8uz073Tb2IpyCv1nND2X2bc2NOyRSciICZAdL6uORZnZ75H5+45/Md4K/UfaMX0GDwGPZiUF4infu5BD7NL9Ab5taOpIxVjPL85CpXdfey6jUm135bsgL/2sZUoIf1He0RSqooIVcn21MszktY2fRO3DfTeOpTpuCsCZ8wApSlfTsVKJMsuQxWMGqCOv/O1VsYc6UdjoDgqAXoVfNFCqB6NknndCt9S4VlBp6A0FH8GL3DDHBMFq5QhO/KEklE0rRiKPeeVqun9dbH1t3jW9cIk8KtEIGp/Zudz3KERfjXxQDWljzm+m8Y+179PqUz2G9jkntQikXcKIDtaLH6O6vfEtQDMu/4jqAEmfAMlVDyYyyNjBrdQxqiGRzVmFethp5En4cMJmjh9d0ki6jQ8aBCdiA+wNgbgtzPFYT77+zLC8TqNtnwPVfPTtwJu6OZdJvIz7W/5H/xi3PBcB25omxTNh5vuy4jIx2pyuHAwP/0kI1Rp3rfATDvkY9kV4J3RQ/8PVPun3rychbVi1sgsd27F5IaJOsdNay5XPwwaVWFxr2LiHJekuYsS58KN6/f/HSOWh3eXWOd2Tv99aTUBcU4lNcjt0IKD9lMxA4ueUf8aT1bjZ89xFm4er7kXoICpq9q04BMfVCB7V7PWqucPDa7A080Mo81f8fzDc+Z38ovhz1o/3kNGfgQDeXUzIUp7Ak3qBpT2vGwnyAvbhWlA88TmvmnaMGe+i035SiiztbJeDijRMjc0kzp2906pGd8RYMo95ytoOpn+PV0z5+kyr9sMY3gRETzSzwasLMfjtVrGh4jYbCrGFZwGFU2JwJMx+RkCkBFWBuE49RnZNF247wci7749gcv2D8mvAUwaOUwi05+JUI3zgLoSfjt2tEKqa9T3tnLQSDFfDXuVRFz2pAHOa0MMZTTdRam3JGJfB/gRRkM64TMUOHJYvMNolbmGhWaPzif9NnTGrWzWCEwngQpBNbVKJlbZzrCO1lXr60vLy7E4k/k9R8yv9IWn2fDluKkN3OcIX+m08HAYZHURfRClzOTD4rzvjidej+IznqH8zd/+kEVW8rLmHN1OcHG6laja2VciEvbcp5YfMSh1LS4xsrYjONR0eXgw7pzGF9Vv7TLLSA0SUEmdhgFp74BPAcjFqP8aMhnwLSL9gs5W1W84oJBS4BPTFAOzMEo3vJDe/XsFTbXTxcPAl4pg6oDaIB3nndDUJxgJuDc4sslE5BCeY5B0GROuHpBT3uu1ucRH/hQgaSYSIPRhbOA8O1dmWV9gi2dmQw3J2v0frc+QGM3fHxr/dPCJV2+nrTImAfrWHIf8wlJO3K0bXfaT4DVnnnmF/ZGdPHrtDSg4wycIBAMyTDLM+JHZeNtfdmm15pLwZfZ57B1XkSqjzwD8IBC4p4B/sbgUK3sZJDODzG363Tgn+sX7F+pGX4JtTGYvwm7dN6jgBA47z4Dq8adM6M9WxlOLbVYUXgExVY3RSAWIN48M0d8xtaCOLTzdHXX6+ui7G2mtH+F7cGaqgb2TwQSzHUxmCT5MeZO4cDpv+sPMLS08TXZPYqUI23cKk/v6VYDOyCu64JXpkJsWLeu/wGGJrCZay6zQAE651xy4BwlDwMhmkKoKcADO7Xz6bglYJb0X2/UFsyVhM0fFniO2+y4kJM7D4PxUnvIrcyFht7ULEccbB6rN2jQ8aBChOA+wNhDV9bJH2aKqM7fzV51vZTk67VzU5ayj+OowAPNJAtH8PmAuTeP7NMIKuK9uxcic95Cb/kVjfRvCqlnSm4+QGN4netRyK7oy46Ldn0NJgUK1TYQML/NTiar9aqniKZ5VnK6CiaLe7dRvlGoOMo5w1xSFv7S4Os4RdEEQFUKxGO4izkjrdVBY8QgmpkCegfdQCV1zkPnZ/lI+YjR/3USwU0n14U+Ib1fm8v+aGWFoVeoRRN+rUBx6ySuQyGAoBgF4A1hc2UICdU8kBXOMhBP3XGhLJcdXuHTuw5CvtuHQaU1byjpNnz5d2uVoJeNx5n1fzh8x4fayi+O4+RD4VRiWo0ynAY/AaucelxxPpOiSiVbwpXp0ps4XKBX1OCYhAu0X2dvwjTjKWhujDVIXKnwlaWRywKrWhd0Sj8eT/bknTFS2BrchPthBc++lIGldlEhwjA7C3uGSZvkrXlz2GClxYPRzjFmzVATAOSvWTK8ImM57F7LALfZ8kAlArVUFjr63ktAiQ3J1pJ5mnln7UXUQEAmf+2t6mgIuAdXT8Qb++rn1A/b3eDwxRcj1PsadS0A4Gpg4YDM3kIUUglDHwlO6Dnwfj7MKDHjEISM194q2FGDuvBDqJR2vLGAp5E7rgAZQVuZqitBLRrNn2eSYSuA7LGsqFe0v4kfPLzxZlmfjKlr1+2Mx4GkfRbM27cnVIgkUUJyGF7FtoethoZn1g/OD+rhmwWE5zjElPYc6hlnnCkIkDVmApJw2q4tJf4ogne+SqSvnP1vDSsNB6NwQ6LRlvJ4+19goxasJT8GZ3DXBTFN3FtZMNjn2O+WLhI/5pI5oWMdjjhWESbii73OLixCUGcYQDoANJDMIzeoDSiFzvgPnIrn/EpVmNnmDFHb1dvahQXDrxUtc8/Q//7R0PlMR6pn29LwUKS/T3L0TS3wCnxyuGqlCsWZvrKRFLP2fOg43KxOKCJ4f6tBRm5Vqblz0f0zc3OSMWfXcJFX4/VrozskVlhQh/2b0ljf9KVpY0C/9Rb+bazxS+s0jy0LSxkSGG2iITHnZPc157XNnUv8zTN6CVzj6t5pOYzDrzazEqUkzyS2/MBUPwBfY/pjqQx+GsgmotMI3TcjjIc08TiUfF3bw7WQFY7s6bwt20iyz7UhYEMoYQlWwAgNdybGM3+046FGaD9pWjFvl9wXWLufxJEiwzDqhzRfQ2P9UUn8USFFS8GHik67nDiksDA8Z9yzI04y0X6we4AeDDTlqgc09z3NLGtzsqkyekdKoigte/wZww=","8"
"","","","","","instructions","15","43312","0.0-7.0","7y04stub0b6y7z6","745","","[{""page_index"":0,""viewing_time"":745}]","","",""
"","","","","","image-button-response","16","45116","0.0-8.0","7y04stub0b6y7z6","null","","","[]","null",""
"","","","","","image-button-response","17","49626","0.0-9.0-0.0","7y04stub0b6y7z6","null","","","images/list_2/timeline_2/1_Muhammad_Ali.png","null",""
"","","","","","image-button-response","18","52336","0.0-9.0-1.0","7y04stub0b6y7z6","null","","","images/list_2/timeline_2/1_Muhammad_Ali.png","null",""
"","","","","","image-button-response","19","54146","0.0-9.0-2.0","7y04stub0b6y7z6","null","","","[]","null",""
"","","","","","image-button-response","20","58657","0.0-9.0-0.1","7y04stub0b6y7z6","null","","","images/list_2/timeline_2/2_Paul_Simon.png","null",""
"","","","","","image-button-response","21","61367","0.0-9.0-1.1","7y04stub0b6y7z6","null","","","images/list_2/timeline_2/2_Paul_Simon.png","null",""
"","","","","","image-button-response","22","63177","0.0-9.0-2.1","7y04stub0b6y7z6","null","","","[]","null",""
"","","","","","image-button-response","23","67687","0.0-9.0-0.2","7y04stub0b6y7z6","null","","","images/list_2/timeline_2/3_Dolly_Parton.png","null",""
"","","","","","image-button-response","24","69330","0.0-9.0-1.2","7y04stub0b6y7z6","1636","","","images/list_2/timeline_2/3_Dolly_Parton.png","1",""
"","","","","","image-button-response","25","71136","0.0-9.0-2.2","7y04stub0b6y7z6","null","","","[]","null",""
"","","","","","image-button-response","26","75647","0.0-9.0-0.3","7y04stub0b6y7z6","null","","","images/list_2/timeline_2/4_Robin_Williams.png","null",""
"","","","","","image-button-response","27","78357","0.0-9.0-1.3","7y04stub0b6y7z6","null","","","images/list_2/timeline_2/4_Robin_Williams.png","null",""
"","","","","","image-button-response","28","80167","0.0-9.0-2.3","7y04stub0b6y7z6","null","","","[]","null",""
"","","","","","image-button-response","29","84682","0.0-9.0-0.4","7y04stub0b6y7z6","null","","","images/list_2/timeline_2/5_Eddie_Murphy.png","null",""
"","","","","","image-button-response","30","87387","0.0-9.0-1.4","7y04stub0b6y7z6","null","","","images/list_2/timeline_2/5_Eddie_Murphy.png","null",""
"","","","","","image-button-response","31","89197","0.0-9.0-2.4","7y04stub0b6y7z6","null","","","[]","null",""
"","","","","","image-button-response","32","93704","0.0-9.0-0.5","7y04stub0b6y7z6","null","","","images/list_2/timeline_2/6_Halle_Berry.png","null",""
"","","","","","image-button-response","33","95904","0.0-9.0-1.5","7y04stub0b6y7z6","2198","","","images/list_2/timeline_2/6_Halle_Berry.png","1",""
"","","","","","image-button-response","34","97717","0.0-9.0-2.5","7y04stub0b6y7z6","null","","","[]","null",""
"","","","","","image-button-response","35","102225","0.0-9.0-0.6","7y04stub0b6y7z6","null","","","images/list_2/timeline_2/7_Amy_Poehler.png","null",""
"","","","","","image-button-response","36","103233","0.0-9.0-1.6","7y04stub0b6y7z6","1006","","","images/list_2/timeline_2/7_Amy_Poehler.png","1",""
"","","","","","image-button-response","37","105037","0.0-9.0-2.6","7y04stub0b6y7z6","null","","","[]","null",""
"","","","","","image-button-response","38","109546","0.0-9.0-0.7","7y04stub0b6y7z6","null","","","images/list_2/timeline_2/8_Cillian_Murphy.png","null",""
"","","","","","image-button-response","39","112254","0.0-9.0-1.7","7y04stub0b6y7z6","null","","","images/list_2/timeline_2/8_Cillian_Murphy.png","null",""
"","","","","","image-button-response","40","114057","0.0-9.0-2.7","7y04stub0b6y7z6","null","","","[]","null",""
"","","","","","image-button-response","41","118567","0.0-9.0-0.8","7y04stub0b6y7z6","null","","","images/list_2/timeline_2/9_Jessica_Alba.png","null",""
"","","","","","image-button-response","42","120695","0.0-9.0-1.8","7y04stub0b6y7z6","2126","","","images/list_2/timeline_2/9_Jessica_Alba.png","1",""
"","","","","","image-button-response","43","122497","0.0-9.0-2.8","7y04stub0b6y7z6","null","","","[]","null",""
"","","","","","image-button-response","44","127009","0.0-9.0-0.9","7y04stub0b6y7z6","null","","","images/list_2/timeline_2/10_Robert_Pattinson.png","null",""
"","","","","","image-button-response","45","129712","0.0-9.0-1.9","7y04stub0b6y7z6","null","","","images/list_2/timeline_2/10_Robert_Pattinson.png","null",""
"","","","","","image-button-response","46","131557","0.0-9.0-2.9","7y04stub0b6y7z6","null","","","[]","null",""
"","","","","","image-button-response","47","136067","0.0-9.0-0.10","7y04stub0b6y7z6","null","","","images/list_2/timeline_2/11_Emma_Robert.png","null",""
"","","","","","image-button-response","48","138048","0.0-9.0-1.10","7y04stub0b6y7z6","1978","","","images/list_2/timeline_2/11_Emma_Robert.png","1",""
"","","","","","image-button-response","49","139857","0.0-9.0-2.10","7y04stub0b6y7z6","null","","","[]","null",""
"","","","","","image-button-response","50","144364","0.0-9.0-0.11","7y04stub0b6y7z6","null","","","images/list_2/timeline_2/12_Billie_Eilish.png","null",""
"","","","","","image-button-response","51","145864","0.0-9.0-1.11","7y04stub0b6y7z6","1497","","","images/list_2/timeline_2/12_Billie_Eilish.png","1",""
"","","","","","image-button-response","52","147667","0.0-9.0-2.11","7y04stub0b6y7z6","null","","","[]","null",""
"","","","","","html-audio-response","53","153648","0.0-10.0","7y04stub0b6y7z6","3541","","","<span style=""color: red; font-size: 24px""> NOW RECORDING </span>
