"success","timeout","failed_images","failed_audio","failed_video","trial_type","trial_index","time_elapsed","internal_node_id","subject","audio","rt","device_id","view_history","stimulus","response","estimated_stimulus_onset"
"true","false","[]","[]","[]","preload","0","365","0.0-0.0","z707wtd8mkkgkdp","65b6eb2fc356a","","","","","",""
"true","","","","","fullscreen","1","3460","0.0-1.0","z707wtd8mkkgkdp","65b6eb2fc356a","2082","","","","",""
"","","","","","initialize-microphone","2","7417","0.0-2.0","z707wtd8mkkgkdp","65b6eb2fc356a","","30dd22ab2b37206c966e6cc1697da94970f6bc28a96247bad18d1b2142137ac5","","","",""
"","","","","","instructions","3","9583","0.0-3.0","z707wtd8mkkgkdp","65b6eb2fc356a","2166","","[{""page_index"":0,""viewing_time"":901},{""page_index"":1,""viewing_time"":1264}]","","",""
"","","","","","image-button-response","4","14095","0.0-4.0-0.0","z707wtd8mkkgkdp","65b6eb2fc356a","null","","","images/instructions/timeline_0/1_Barck_Obama.png","null",""
"","","","","","image-button-response","5","16070","0.0-4.0-1.0","z707wtd8mkkgkdp","65b6eb2fc356a","1972","","","images/instructions/timeline_0/1_Barck_Obama.png","1",""
"","","","","","image-button-response","6","17874","0.0-4.0-2.0","z707wtd8mkkgkdp","65b6eb2fc356a","null","","","[]","null",""
"","","","","","image-button-response","7","22376","0.0-4.0-0.1","z707wtd8mkkgkdp","65b6eb2fc356a","null","","","images/instructions/timeline_0/2_Leonardo_DiCaprio.png","null",""
"","","","","","image-button-response","8","25093","0.0-4.0-1.1","z707wtd8mkkgkdp","65b6eb2fc356a","null","","","images/instructions/timeline_0/2_Leonardo_DiCaprio.png","null",""
"","","","","","image-button-response","9","26904","0.0-4.0-2.1","z707wtd8mkkgkdp","65b6eb2fc356a","null","","","[]","null",""
"","","","","","image-button-response","10","31409","0.0-4.0-0.2","z707wtd8mkkgkdp","65b6eb2fc356a","null","","","images/instructions/timeline_0/3_Beyonce.png","null",""
"","","","","","image-button-response","11","32282","0.0-4.0-1.2","z707wtd8mkkgkdp","65b6eb2fc356a","870","","","images/instructions/timeline_0/3_Beyonce.png","1",""
"","","","","","image-button-response","12","34089","0.0-4.0-2.2","z707wtd8mkkgkdp","65b6eb2fc356a","null","","","[]","null",""
"","","","","","instructions","13","37084","0.0-5.0","z707wtd8mkkgkdp","65b6eb2fc356a","2995","","[{""page_index"":0,""viewing_time"":1568},{""page_index"":1,""viewing_time"":1426}]","","",""
"","","","","","html-audio-response","14","40955","0.0-6.0","z707wtd8mkkgkdp","65b6eb2fc356a","2380","","","<span style=""color: red; font-size: 24px""> NOW RECORDING</span>
        <p>Please say out loud the names of the celebrities you saw. The names can be said in any order.</p>","GkXfo59ChoEBQveBAULygQRC84EIQoKEd2VibUKHgQRChYECGFOAZwH/////////FUmpZpkq17GDD0JATYCGQ2hyb21lV0GGQ2hyb21lFlSua7+uvdeBAXPFhyrzvZpUNF6DgQKGhkFfT1BVU2Oik09wdXNIZWFkAQEAAIC7AAAAAADhjbWERzuAAJ+BAWJkgSAfQ7Z1Af/////////ngQCjRB+BAACA+4P9Mv8Kfzg6O9EeFbrYmbV0M4sJ7OLXh4y/tyfBNog87FMyAS6nuBlzWseucFRidC8ZuCpkXkluUxs9Ae6n70FG366xOIpuAR0BLnle2oHw1VTCKY0qZOpCnRLW6dZBM1fyqKB4w0jzLFOEXzkX7KLpXipkfwy0YFUUowJA+evcSNyzC7N1aZc4xpx2UOG+4zIbqyjJgTqclsFnPJ1NqULQSCS87QALja/XNNdohTRz7qUc4gDby5CFyuAUOluyL7RlevBPy+TyzknAYYrESgAAAAAAAAAAAAA9Ys1CWikyc0xJpiEpOdRt229YUlu7m0KwfBDQ65Tkd55f3OTGHI9HWNDFhwaCQ8Fjo2DSiykiR4VnWBhAFQpAbzhVlZcFdGuBeFZQtIgfas+wWfMq5MAV20mfAXvZUHJMkXNAseLF9NscbtdbUjkBdL9adet6Jni3mq4hHGGaVJIVqrd9JYvhI4vjI/6iJ5HKNzMjKG1KFdTHSOmv9cOqb4CDvECfClFSKXFL4P5TPOyfI7qQDSy5QLS1lH/Wt+vvVe2aLTS16XI6YyYnEHBuH3ofIownf+Xwu704TDPf/J0VNQ0LrBDh8sBRPXZbr21eF4Me9KCBOmclI5si7VDLC7UkVMZAFvumPnyPtTjeuqoQk2EzZPsQJOEDKGj5DJRpiZicQ9Mx7Sm/vlXZR4Sru0+tJmeEZ4maVqhYYcgMYjhOQPaKrD8UQzo1GiLfhbaaNQElTF//eYrfVH0YYD3meBpDBnrz+0Xws4CZEpF0jXow5E6xZX77o6Hl3IWgOKlEs5Z6qXo4QU0xDzxFxbQQhifPhTN6BIZVYVRHBvA6YfYRGpkx5T7XGiLt2h7clyHQvp3mMPy8o1u9eLjr9IY82B/vf7bc3K+9umZrm1dg0QFsbdjVAExmZUYjLT47AjSYalyMpnf7XRg+4HZjk62G/zDNzoPNp0+IRYkbQdRWrQsAmlvtiahL5534JOjk+KnXPqoWEDFyi+/CJKa3olDnPcUfgb9ina+PWCtksYm9yyBNvGGqMSOTXfUt2aTb9N1CKTdZh3WtexwtKIfIrI9gwUf0E3nSf/6y4p1l6cmHqOwFteKqojA9oNqTMK3OuSWtme4Pp0M2/xil0TGHs+0LacX/ZlEgAHCOTjxSSi1MA/oLTEQMmHFeSOHdOO2w1PbkbRO493DmtW/jYxUS/LpL586N3wK3WHE8yzBt9Vj4GLk7wD/UcsXtRudp51fI+MZWh0n3gT6VUwtMV90deTeUGCXyazGfnHIBoNQHNC8fKq+/xhcN1XGTm8TvqUSzK+JL/R37ttIQZrnsgCUfwr5oBoqog/Cq2Q1p2VqIKwR4D8/XnzeSHrCFTwsksnw7qX+Am3LIRoDjJx7cYqTyYHzHLqNDhYEAPID7g/wL/gvvrTsq/zqbxQTvSVgcO/nFpswiMeGZAQUbfhMTzIAFzz54zCGbB1hJwpqRXoidYi2EVLFioSr2E7z6s8r+tfUdDiwru15NK6G3qIyx7ShHel6H+HnzA9ZhD/gjRWQ/rEY3j9JHH1ePAkOP9MQts6aI3/Wq5IdqWNEX2VMdNKvyw3ADPqjE06GD/ZC0Wwj7egmFiwuF5V2J/4qNm2+CRL/yyIxG93ECIsDM4Wp4yWYOKw+vaojMGnVa4swLUKyEwdWbKQG80+ABEv4imrcOIz/YyLo+c4AVO/bWROirx2RZKO3eyqSznNQAFmomRxDe8VB8oE7Owp8y4tnug2/LXWK/QA9SChurirXINz6bRuJlcXM+ukEUI+sIn5EQFK5Phr68n2olUIZXM/BOaMy1UkVoF4sEGCILaMTKvI1OItSKZSmv9j0nZHtqwW7YPcXftif87YjLAcCw+AeauXmEP9p+RvyhhWlsKH1tMqSfRNy0roXm+N9bq2txP+r813Q4n7qfQB1ytLZaKiTCXGMpK0/aJpLNrsCR/ugAQSS8QBeyjdk1ZdlCznbFYfgRSzZMPIB2yK093nNVtSeF8UoMMZ6RDmQOv4vqlcqQ1HuhkgrmJcPV0pY3yNrec+5cywp/3v4qT8BkTaETUWwUPKPxZGlX0VApcIVyDauADY371oppou3AvJpJGjQM0W40atf5ZoQzFlmkBmg+x9V/WCEfpqojOF9ZHF0dnOTmFoU2VuZIzft0Y1yPFOFB4cWwXEPcVbcqM3MUKGnv2VzsYWCXwXl5dybvqs++PHw9etDGl1q/m39eUfHUZeT/UDvpE054VCAoHZINcrYSOcVMGjmFM1BetBz/nxIU607f31tTJK234nNflz/3sOvPeML9gjKW8h2mQZOCNNctHqk4Kx3CZfDvfWiN3KGwvBa993So/q7RVO8iJRhjLEGJtlMIMBhFpFrR+Vp65iy+1vZLPH7gGnXJLbjTEd7qEATzsFmzlJ7mklRrmE/6n1X2/JbtX8nD3FF2Wi+tXRGbMQEMenzOf/Z7I4SR6UJnW/HshL8OZeqUbx72ApAaCytOXy2mDwJsLlWY92TRusV+aSAtugkwHa+qP9jIHlqR2k+9kvQpCEg5zrcxihnXZ8hvFnu2rLjg/qIZ2DbgBUAnapdaEiNqEiNuEJKFlb35k4Q6FzCjQ7qBAHeA+4P8DfwR7ODhk6wgPvxCyybnFvB/TbW+GBQlgLjA1eKrEnmsbOQOF1ai9QegYrorqTG26Ni/5syqx/ltYveQx/QQPkUrbeGlv4BD0ZQ70yc6GCiAl42+5eZLFQJJvss06l9j8I2BFT8NgFGKUhy6ib0YGC946GYTbNXo2Bk9mliBAM9Crsn2MFil4zGlQvviGna3KOkaqpm8OFt1hGGUuS2B+RbGSEJey5U2Fm5xhJm5JRKJ66tWZr8c3iZa3Dp9xaiyD8KM1aqPJu/mqC7ANW8wEPbvAOXU1SFyxXVEMcEFI7el/RbGOUM8Jb2HYmuj46F7JT4i+Vi7tE6CHRfhevNzgxoqPYGVn9Pleba3c/uFCL9CXJSBaSOUe1Jula7FQsy1v/Bb8+oA59IqOwzai2sARlanM+xwbqQAU7dB7YcqcH6DpcqKz5cIaAfKCLVL5RT+kL5u+B/Vxuy1pduznlPJx1+OriSnZLmn1zMCjggS9kJaFOstn+h0QsC/UfmdVzOao84VawvcevMiIkYHP8YLIHjgw4TJw/0azriMgmKK0XI/A8FuWOdlPAIfjzu/FJtHQTpExf4AyDXlzYToWgoqzk9lAt9vs4qGfS+ifLgLhghxoQSmtNrl9PYkKcfgRhSMCyW51dNOkkPiJ5eotX/KSl6KekQ/1dJlY3/lAqMqhJ+/7CHLzgi5ERc3eWXZcf9qG8vb9wiryp2udekYa6RsB0094LiF1ADNSSJXyxMt1tWCrEHLDIxkR0UxZ06bVngU38r3Dn+aj6DGtIwJAnv4sIw0AaumMpE/ERo46kPd8gh7r0cvxwgLfBSc0hx1xkz4wBcw77soregdKTAb1sXur8FWv4xvzeFarESgNxaPQQhCAOtELzMkB/Vkb9loA0AVuAC2ITrci58D0/PoUbBM3h2rfvzHhT4S2nBdWicOKbWGRRzS6ObgVpO3ZPPID88ZBK+OHyYHv7PC9hI34w/SvleisMylUpRAQ0wNbIMx2mFUKNt9yp65rGmgv7S3MJjd0zAwV+1sPBKRNlT4uL4tYTR5e5o2IS04lwTOEiRvKu9srWPthEs6EbXhN2ojzI8aSUQ5Rkh7G3L0//dy7uRfmeAt6VPIqw9Vdl5ivq2fgBxbU1y/nMVii5MqGFFedcJ4q4SlB1Fdr1HW3huSNAWGkVlIq12OOlLnOmavlpxVphfPRuXFgAdWEBK0Jj1f4HRXkbgJxyHp3ON/jc1+1Kt1JD/gQ9l7HYwk0rlI7z29RZVr9zijRKuBALSA+4P8EfwR8ZihYcVuyb6L7rcrKJBe2R5drKPU7ExGuKPjHeMhR9zkpgM+yltc18ob+RBdzsJCdcD423fFG3aJQ4cOvZ5nYEZaPKIh+zVLKDILVa9wr7+Ue5BqqL3LnExOM0K+0IGNjj49j86uHN6JAAt1J+EIzIfD0mdLDpy/IkBNdPTVq/EoewAHUokRZ9+7ZsgH7WabYVOV2LUl2AKWD8j8HLxhboaRwQezQ2NoJwNOgYUb2pSTxKT65QqFYS5msK2O4HPO98C/iqBbo1Vv4FcQjMFQYjlQlUycxMyWfL5OYpLRC7vM2MRN9zU8JV/xOcsUaMXhEvWCCiXXh8j5M3EAAkhWtqfWePYpoz3GHHxrOH18+oU50Gq1V9b1MrSXkNVqbdXwhJsN5EA/WBX2PV7va20B4oDNshTrag5l2IPx6i4L9zUhx00Eyf3NZTHvoRPMjdvnRaWwCwg4wD/Cr3PcdJGqF7MdPnTF0tv/cd7P1J26z60ZZKUEKh+FQoFfvqq3yj2AcIc7hUFsSrtEkAmHs+auhPKmQesgcs79mLSWPegcFW77VsNq7wfIEaF+W7hFWHLmwpnvn1sMdr/GS9C7R09lgNL+NkoZ0q6YIAK23N5jDK0c22lPHki9XJlt84OQm5l4ejkrEf6KGBwdJmPIWCA5nzmG36kX+aFneUgmgIKbHhfNRrLItX8mXdtclGrB2hgVCKgNqkGCeG0utQZotVMQTKHrXOB7cIAlTexzVI5p9N9acqoaILyZNclsN8Okbh83l/YN95hInT9tfKKEoKsRC0vrssa7xtivX7tFCOH/kJRql5/TBQqHH3niLCauAVmTfaYz6dBu/F+xlIZigEc+BvQOheDA9kAgYQu6z2beVlOkAix34uf3xhLcZcYi5Gj9usPNtf1dOQFNagxaV9wg2CtCSBP69JfMKEhG0Rz5ouCzR/L8IKg4QI/aNMdij9Zeej5uAMNL+kn6nc19cw2p1k8/+dpsZPTQkd6q++TNiK6PXsw9aaMfsRzTVzhBShq0B8qDDcrIWuke71GQylhmWiB3RRN7fBOV7erBS2q6EdldE+ELATNFetWO2aYrdew2agPlH8+tSlrYLgPeQV4kaeVsNZHgVyzP8bVZ0F+/UHQcbPkQgTAz6sRyZp/lwt8M3JeS8eiOzsV1UW2JJEzn8PdQx+gee+zP9STg1svLzF25PthzZCPOqWvuNWq1JRFwTlr3vjioGDsrFCNOpnItvefz3IpnhoMrpIK9cEjssuDi6ZAL/lPaEdj8DYe1nP1w0rURh1B7iPCKRTAvuuxMbdQ8Vmpywbx1zS4IkVFDsuQzY4zYkt9pzpck/iGInohd0VkHjAaOAXuY7Ke5dlcPFzEzSladvb1p/3WwMgM7skIGxf7aV4mizMGL2CxKNYaVC/W9hVGf5X9bE3rhuc+ySfOcgVPvL03PSfYSpdVhXsSdSRxGWLqx+o8lHFB356yXSFFCuV9xO/ig2tqnEt0DGoL1NDQYPuRkTo7W0Zjiq026rQgOCREjwHjw+fQ8DmKwLnGnOZyNUBUSDUAh5QH/u7eWS28jwjxZXGQExK/Ya0M2o0O8gQDwgPuD/Rv8CnDrXKpzIuRuHNy96vqozHEdmfCdAxf+U63gXeoIkFD6/7sR8v3ryE2gy3WjEFFb9yV5frCTg+RPnBT66Zjzra0BDM3HkBUkLDH5blBzOcNIcXRA3XWmUJ4NX4B5uj7fiUXMFnm8vPfnSVmy4ppw7Q+J06xE8AussTlm0TQv6tbRD1EhfXqJlALGtT5MbQPie814KasrN5bW3LC5x34kd3IjP2OHqrfrzvavKowdhwpz/dV3Dishnd4F3CZdsToJI0ZAaPTxHNL4yO748Ftow0cw+uM5R7AldtqnhpBgkUmJ1Mb0y7SEDu8aXhzALn5qKzIHztpVv1ydrVUVoh09QCEkezwkTx9G0MViuL2a89/E0XWOuGzYAtg0OTrvF1ux7nQ7nlNFmVu8mYrryOFr1mc7H95cbpvClhJ7SxTNfedMFeOxOZ/OQJTYumQIfR7YUalDlUvY3p4t/+evbHft/kMPGzgRqdT+lbU+uJfMQulQCAojZx6TF3B5zBvp+4RHCM3B0Z2w+sB1HLO7na0mdeUhyLA5nAgKwXnqNsKlcFg4lJ95YrS2fWuw4lT0J7pvN1KqB0vhrY3TzrxDHAa0p/6DygUuw5HFONUd0DE0AKcTx/TOSIPOzZQAfX8rpNEi6VnYtIiKPkljKVchbJz4D0Cq1lsy7/fZ2kojSzBR7zbKtowmOT/6JLEdUy+65PbWdBUBuiM/dXnZhleSKnaD6ef5JmqqCK50nafdZvZDfnrJYvBW0pZGYElxGDCXajQu1yvaDdqGXGoecyaPqN0pq66AhINdFzfzh4UhSrmrxVJugQP786X6Rd5NQy5pOZry4qD0vsrK/FRddHNRMkggOhhieXbgVkfhFCSjDPd777xo0wFY4xzmCHug5uyo1f4TWNNVKr9MvpWZQv/Gj23tHSTkaFPA6jNcwlXnJwWbNNTvF9vvPPkAwA+R60CMyCewIpRp1d48Kk1C2Yj3RythcCuHxPWrNnri7z50aAGK9dw8/nyb19LT0caKvRl8dyKJ8/nvF/aT3kM55tsi0lHvn3LjGg+4J/01EYAyO5EQuCAMU6GhFvu0oTPg2YkEC88HY/x6sIqJlCdShraCMPJh2/1nLtQISHwiYc0Qek5bp/izs6RkgVlDWjLcU7GANtmSLV9D42tGdb6qzFuZl/TijIBARhkl0nl6+qPsbEWupu5DFzNc2jOHgUGqzb/nsJyCx5mDOHW69Hvu/ATwUn2TKt/6ZZ4FL6e33KlKJME0FnyEtTmjQ4aBASyA+4P8C/wL8DcoUvRBZ6ch1ZREOa9Tbxe//zYMko3YT7icJGlNH6rNEDV2CPkg7cNN/m76M+KZsUOAYkAPegxvby7yxGWk5TDERgwolXWora1CXU819xKv9wUVuhQYZpN/4JBnvNFTP8rwipkyf4yICSbN/BVy+PGIrUPY5EBwSWeRhC8eIU9t5afoGtRfflSN5UGLuaCx6KgcXYcaxyYwLgmmd4Ny+94xjr4CiAiOfs53R4GMj7ZrnrWD1udHWAZavcV/3BNKXjfLq+BHuK0Xj2Axy3Zjnrg07gfmEvFprLOiHGZoSZYUKixWYXBNLk2tJFSKwlIXpVwSvlQDCXqRPZPIeTtROsCQaJKTQgVRqCE6O1V4b2hIM04Pu170vApv6lwiS0l6tydHPLmg9THvu7JiUCqRtYMnp6WTGXlsU7+8NX41M0Ef8rYayrEyBMI8zoig/7YneamAKnZ/D2cy2pUt16VfHukZsVvirqHfoyDaA4uIZL9o2h2q/vd3gdZ3fNGAu1WZ/a6wjF43BCjywWoopGNHIafSlads6Anv5dXvXBE77WB+3Pft++Ag1dBCZ56YusQ2mZvxHwl1NL/8ZkmjrZgDZTynb4XzvAahYzGbd7/EHRCaPc3XlClbvSxOlf7ORzhZ2NP/kyJ82lWuNKGGgH/vMmZD2zt1B+Tg35KOAq23fIa+qJX5fKapCk7X2vlaCopNkjMT8dNmkO+WehXuBOOt3LVr8HQHi28gePObI3+POBkp30FvQgqK3y4KeO9pvexHHywSzjLoa0M0Ss7eYV1nNu0QVkm0aVloxk5ekhh8cRVgScV6C8GhXD1ozGuo12hmATG2vfImwu8GvpPh1+x3aXG4UvvVLegYdc0dQw/ZmaKwwdA2fZZokEEomxc4FcQlQWeZM2hQxHGKCN3+wj6ULh6+aulBY7a5E2HNtrLt+NYAu9KprjCqFeOrTwnZzhLM6lFEYFKogeNKF6lLgUp1oTQxklBiKKCKnmIugCPptkiDQi9QeplsroND/Gv5kSTDfMEpMuyiZJ+Vx6TE3SwAPQ3hPT0caWcgT9YwTvB4OpVwPqqygF2j6B5JLV5Gpw2PBTQdUPi0bBz2Am1gmQnIqAWnm5lkXuvE4jj6UfA3xdJD/Cs81tCVwyiQlwrLtdoBPiZiUGsdkIsN5zO3a6pnvGzOpB2UpOzgIxoVMaNDkoEBaID7g/0M/QztMN1oMFIz+GXfPU8H3CH1ZPfGMSZa4M/O7inK5mrNVI0JFWMk5I5+OpVudnIhq9nbcWqQRFAN/G8gIcTgjq1/RiAb8dRGBdbG/1ZBbUmnOdMAZozkQxYdBLuW8PHZUhVBGsH6m5BrFp6n1Vmj/fXlR7d6K9PM4EsNx9XpRcGpO8t+etxGqbRD5Ugo/QPd5jMDa3mejP8TeCGaJ1mTWc9rmIDh8GgyA9zxJS1yJ8r4eCsj0c01X5HGPTF63q23Ti6EuXHJnxCOjZPG880/2IPmLNSLQIdwUCWp5rIX/12ZhSq/injeDrJiyd1qFiIUQVn8LrP6gnz90av6Kp6l7eXPEt5npqvV3govc14PnxJc9Dg8iXvaFBjjIK3AAu/3/AbiWvRdFzBf9QotxJUx77kFLs2LKM2ni+6LnwvHbThW1sBcJe3YdKGV8S1D78gDcfO0Zgjk3TFsklz4JpG1cM1RnYED9pJYij83NX0qRLv5XzM5bM6JMcuhC/p6pVNsNZ4v+RGRTUV+FX2FVR6AZDq6L7kNZP5vjG3GDHUyo5ZO1Wk9sH31X5p9y7IoCBodp/h64A1qMv+NGrrW15Kc8I3/UNclpfElqT6yY3H/bAOUe5N36KhckFf7mvnjBnFiXUs9P9MChoyzU2t446c7y0YKip15yu7RDtQQrJCXX7HBRril/UIfB4hbwqxY0wHOFayK1vrs5+XApeFaTlqysXb4Llo5IQhnMRgEFLoIH9AydUfwQbmSagSa8JewsLD7XDXN/6kkhfalmyy95egj719506xEIQtcWepVMhOy32ESVc85kVPM+kfBipr57IzqwNeAJc51cmndwSC9G2x+J6RBX4MIJNp184dw4ClUqV2xD72Vvk8loApfMpanqrh26ylQ8X9TE5RhYXpdaeyk/CQaKYzhYgmSH5mR1+5Yu4L0+DHrYi2TNoumj4laXMPPcQOrNCRbiRmuSwva8C/rFL1h3E9DNy/6RFkbuMAGFGuSnUjqV49aCO5Y3WXoJf6aDXWPyjFBB7vrSECWBmYGn19KoqNjVI8SZx7nkFZU3dJwHWWFlXyQ14iKuZeFb1UoNFkrQeYwRSjBWGMusnjgXm8mxzj2LPtcspae2iTJ019YA+atiIGPAq7dUq9lFqnGy8T1xmsPNS5xirQi8lkaZxeVS2TbB8vWTULu5+NNHLxBG/mdAGbfuzbSo0OOgQGjgPuD/wv9DBlztHv0hyFunXdyo5bWrg37xzt9gPT3Ia4Spda8v2uik0Kk9R9s/FvpwLhVqXQ4lIi2S8w304COZpQk9rqO2FxL087UUU5Z/WqMt3V1nTWuoIzB9WFurS8AwdyPEQB0LKXmDlUH7pw6utsTRmdilaK6aku8qR5hwNmoSi6tQ+VLetNRse79I8iqwCs/7aTtxZcILtvMFloBbmat1ZMdx+oRmP3vR4NmYmHUBwT2xNV1ecrR9C8UIr5wTCiPYu7gF0VV9nDUc9oxtM7P4k7RPiqHNwc7RJzFz6H8M6WR53CHfi5rkb5IISfYuO70suA6vxIMd4kl+T2A/oLNT1O6PCE92UvDWLVD6GYrdeiTMF4n5E1w0BITrtfC2OlnNfcziPvZMsYMwOoHpAo4F4zEeT7xwn6Rg9w3hVvIUlL76DsCJiv0JfC9At7ore7fFhgplTtDcc6Md4XHcHL51x/LrfovwrZJuR32AcqHJLky1FYTcXL5VW3YHd9eJ68mWgpWf2ByKNQ0xl5Uve6tHReFJlDeg+K9BnuwZwWDO/b3c4q8ATtViDbsBy9WF5vcb+Oa2Fqr/R9SWs0VqoxswFqOa1X/zAPoRTWFrkSE15+zFhwlHhHTtGWnDFryhvY408yyApC+74kvt4OHYUGzblNM7TxX5JB6NHDbPram/z+nym5mtYMd6rY8+jauvAfVrQTFxvhXqerbOCn8QGY+L/NtjY+h3aco0k2Q3MuB7Z+vW/bTDRBqOnHqbtUG+f1O7/x3qL/Xiv7AJ6uBeuTbGNG8zT6Ec0n0AahbmhM8rgd3ogS7KL7HwxTH9eSLWvhQadHw3coYaBzmaVKhFa6PRoakbxTZFA8G2YcIGd4B+A3blj5avXtWmyg+EWwyHr5kNSBBclnKdfWU9mLS0p3D4L67Gd97Ht1EjpzcJvGyL9qmYb5ZgScpUAsYXESk5MczfZD+puKZQu/uxN0acCWHIw9vqZIXVgjArH8mReOemh1uTSu4d8po7KVC+Jdh9KW6DiIhlpYVjrzCi5FkPVTYfuE3r6i70zkdmLPUQiFJHyTbFacsGmomh6d2SSKNy9ZcfFnVQiFVpyxvfsbPXW09LJ1r8KM4A0dI72ODUUWxEiFH9xism9+wlWioL9Tb7+tO63IiYLnQy89h91oA+PbrAX5DtIBCShzS7DqqXfxMb8ioRRuQeaQMCKNDr4EB34D7g/4M/w7sZAjCHEXauHDIBdlsirP7L12z5RlhZ3ltKZtdfr3BZpsp17dxjqOUAGQ5di/S91XI2E0NTMicHF+HYD1xnyT+6SVfOt+nKIHjJEDzx9tp/Sf9sqRJ7ns2mwEl86dZ2vahJk0m5LzHJBb/R9hnJ2CqCPB9mmANyZ4jFjQrRvLU3/sSzFL7MrOdIk/1iFh9dyB/wyvGdiUqyGSFYC82CX/A/QeH2Grk1prU/SoAYyMbIogwDu62LQwdNCt/myv5xRQpryurofKjqWmcN0o4Sqk8qsxtq4kLJ74ioR3IqiHyDodtanK3W4IYyRvAs4NKoz8wvZpVbq0I1RZKeHbFFVo5kZVTpqiW5HBnyJPN/GyZhPqhhh+QX8Z4REwIH/4z+7ds871g0E2r+vZ4OMkVSReT6w2ff6FlNVgyngkrTAw3/hR+eC4VMGpRDLuHueKIcjk9LB7nOR13MyMSaud9wQEnApkwe7jRMf82nFmf62QDVMcBLm2RdeR3qmX+awyBlAEu14uxa2B5XXTtW/rWOsYdGzwyXxqY111XiXHZDsLo9AuOoA2m71qdxiL3hKyGeFsqeWJ3amRwVADH/dpMtSBXlyaKr9V5CuBfZa6KWOTDnm0EYFt2XlYSHS+TRZaB7c19091H/HmhEO7T6jysFCmUcrvvOz8GtE5OaoEfBggSkK5+6r2Tchlx+lGm2nV503Qey67txsplPwoIrI6xlSBnUHnvnuCpa0/6M6gufl6R4zKSLZlgTCHsiax2jwRd5JpdGIi9aFhPVDBu2+NOTXN6Tg5Oy4oZglRSlx3EPSpeI5HmxzxB773WG9FypHC2CI3UdeVWJ20TbNMjzdm0QIrhXJhmJomXzhDx8H0ljFg946uG8C+/sO0EArdAROQS9B/Bq9gElsdB4X0bX7xIpRki7StziHdqPrlFUK4CDsUcGQu6sI4hjxHa/PJSRDsSNDidH6XxTznulffjdSvGx/yZfJf5CNH1LBg04HglKQKd+PkSHJAv6En+Qnk5800qc5TgXBNIJE1ANpzuTyJNYxYq4p/avA2aBI43l2pluZhAiFns3svoALmyjIaGlEzOngW1UisViysJPPSs1SxLS25Dep46MW6Bzx6KU50WPA7eVSdirFgcQAEklwiL5MKJSZHl1DPVcwaoU3MZCy8/rbOfx/DXcHwhIRlisQamJSY+MKEJQX73gwnnYjiPl+BiB3Ujggl46nVi5RTUiawvdMVMcPmd9TSjRBGBAhyA+4P8EfwR8Eq2BTIPxmjIZRX+C+P57vSz6YpD5GKsSE7AJwOS8+Kd+t4WjdMn69tWc1FkUqelu3qRE4NtVj1edQa1fFAykKCK0yJiTn8/SnomutCVXNNMx2L5V0pEC2FReQmsahjM/raCwAIeVQDcglJiSyLNjXRk9FTWxbvFyoJxqXzqBXXleo4r3/gPcxAMuHEbyRBxTF1rlGT+FCegvClYxbLFq1qlTCn644Ejy4T1nLayaX/dJEYM5mKs9MpWoofymRL6d6P7fr7xLoNBDCXjnhhqqTfGEIJK8HFrTUcfwojKkSnKN9QmnknCdI6oE+BCoQ8cDxjaMxXi8NRWPelmrqmK4rohlEoaEd2wceJwYLoVVfPpoWyhDKi7loMY/0n+pvR/+4VXo0SHoQ+9nedat6AEHMOy4IB8Dw3eMz+iBBOqxR3voMTA/2ZiF32Y/xUNhXVcJQ9khKWS/s5RwwpuOchJ6YB6TfHpCdPevCJWZzqjEdpzXxbIug0P/9SK6qXRWMAazw6ZUSeTeoKKY8XKhXJGMLTRqgzHytAf1iFEQyzm+A1FlnfAS8kYjj/39YLEECNpPPW4JuVOxBkRPjoxYz8xpCVNhKXseToMyijBG7n/qHbXCzH6TC4lohfuKz8lU1wM6gLuu6BElVqftZLoX/ygu4xLer8qap/42X/2rCOrADUWwIFeFgYtE6v3DKPshIJL5jK/1Bgwd5ZMtj63XvXvf1gMjc8T+yxTXDUGLs7JbVP7zAkDbjWC+q/RKdJC01crjFygvisXGala5xkrbrmPH5Dfk/vJ0XienQvyfJuOTazegSftJdTSmzhLoQWL/uV2Z3DVIclHJ/4hgdSGpJJFQvQgmLukEExqfQteA7i0+t2qZB/wqKftYFRpd6TDVgeb1G8xhDPEDKGzgYmA7+JNjAUun6ml2iXZqf++M3XNpQgQjm1usnPmsp9fTGo0M6VVPSLzLRW58Zb3sfX15py8m3P6wJtED/I4RZhMfnqO1QhwShXDtjAUw04H/oKKpHObu+omn0gfNi7FEP3BGA6co4ZsVuSb686vg2wAaM3UQpjie6iU16hp6Snbit+lZ+S5cF2gAEsXW8dheDkCVTeUKM2z/fo94P3dYkqAnN409XqtCsukcrVYEhktU6O7ZF3FrHiBYv1l+VLprb3BwORdxdix2Nv/apSjzuzHoACgLmBptjvhxEgNbcnatsE5YdUWgFNIvzEyZzl3fHfnH2QRt9n+3819LjYuHdX40gLwwADhOcTg5lNVNwgmRJD9Euc/xbA0M908Z6w6vB+3rrG5v+QFo+6WNteYh8DJgGYdT8g2R/0LLfbx+awuW9b7uqkS5G03CW7Ovt7RpiF9A2z5mjoQO1xB1TSjQ+WBAliA+4P8I/8LcN6YzzSzKuCls2fEx+paxcOaS4KNE8iC4AhRUgxHZfdgJ1XaKl7+32FELg337ceIpCkeqi7ejwP2uORrbkJsuzPJPAHDrQRCsC3pa5l+L6Iw08SDc/vHVRvg52MQg11g+HrVQcY+jW5QmX2+7PAR4cLQ9T2Fac2CFJ1CXudDTF3rvDnxjSddEEynkWusZxvF3fM8dRSMyp8PhUpJLb/QV9CPzNm+o16eib9VQ1D80xoTpmvCok1UgvwvlJd591+GynJiO+D/nLdc/oy+AvnISpsSDL9mUlzeFef6vBTWgruhgF7IY/UJg2FRop9IZj6v5HWwuzZTZBqw0rbie1oQjJR4bDfsnh/2vgGcwQhhBuSutlFc8pbt7GvAa5e/d7R4wCJPJDE73m1mbETKxJ6XMm3PzdYiTMP4ROYd5niXvoAkISPQ05ciMSZ++9wPBcxS2PC7eryccpP/a88RuVw4KQJWF5KYpwXXk7GYRYDwXxgXMMrpuGR8C905z/vGJgIDfqhgBXB7I68+uLPiJKhf9FXHZZ2u+njOCP0G4ZQBcg2Xvl73RXOVvvOAF2cV2xB3sIde+PyHNxi4oBqq5C70UJoUshGXE93VTJR82x3ZYf/ifG8F2geyICKGt0CxccPF8QOtdPKn1z7TAwGTJK/UJA3yC82NZU+AmAMPkIW56ci/zepAINsi35A2qIF9u7VCeKO/2JybO/CcnPteMCXLVDkXmb6+9DgQQGk69z+d9AeWeN+Y54jHqsTf6HZFdV9p06gVz5JAUQmYNNepcmD1GZB0JNbobZdofEdQpeiDvT/7hnf8zmE2Y4NBc+zpAvnhMYs1jY5Chrc2QSHqWreIerMDypLZHrqw9p2LaspwtZCUaDdi6mqc10l8NnUyVGFiEFRc91nEUU6D1Nb9CThIHx5XYBdndBUGReX2KIsPZCd0uOuKBMF6NInkr/tIxFVwO4dXuHpUoUXtc5ZndtmwXJz/AIhtOWs9FoYUdX0dw7GgkCvmkjrWSZcxMWk5+fBRPEv67TUnXZMn6jNbcZFMlbFJWRPQEwKuavbdSQdQcvs+BaFrFrh7ybljY9mPrZaARmmNIcvxDWBtdTcoSbNHasKDa9xP2nwVPws5hnt0dkpBW+fw7v2LAd8PySAVUEu140s8D9mKZym454mDI6HaNPB2ZEhgk8vyovxE9eH7Gx45xgfYj7fTE80SP5M3Ev9JlvlozHCz3s87aQlE3J432JB6k7O+CsFhHxi06915w9gZiINrsamCipGAEK1Imk48mqpMJ/XKSreF6O2vDdv+tWZjI8LLifw56f3Ao0OBgQKUgPuD/wv8C+/AhQlsiq0Za9pPiEvhIYE0RRjaJgqNCNH0lu6XmX9+adUIzDXU+IcHfJ1I3JZe4aUfLnWJfqDVyeIWnUOTZVYHECYXRq0dOs1AsQQBIRYvXXJJoE0gtK/FLg/fNdeo7h02gcgmlaBm2RkZnrgk7rIuRiztx2C9lCX6Hu2Fv1qNxPkyOZBIsbQtuOiv4v0rC60kRQ3xXjk6UhDISasuZ1g5XkH1ZtiNS0EUnGT4vkAhxHCCqAWxkDIuHIyVOiIq6qFkbHpbnhY6ZO6Fa9I2aP8YSZxg3fa0Wgm6sRJILZXpwwe2eDSEJpvk3DDq1abEKZacgfAfAg0EVXbbA2dxWT/cprh5SqfT2awEbug5YAgGN7p1+yue1V2JZc3f0/WM1dDgOC0D+nnuX+MsFVEc9FGcSnly8UAwaMBSDRwh8mDiiB40jACSZMD0JmvNzZAuCIqItbGHdq9Rokc4m7SANogYR5ec9GesDlNccHyKPY4BAOn+zynJzQQM+Ry80wELz2Sa0jR4nahe6jmI0SRxW7Hf8q2kI9kF1cy78w8Cq1yi+FFraheqpy67daw+k6lITwOSZKjGhmt5fy4T1zZ9729U5WGhX6zfgGyottn++b4NYhXgIy0a/sBDQQaYep8x+IT/C7LCpli1nrfN0M/TK+WfOm0ZT4/X9myKs6FySfDq6zhyDg2PDc7PAfeaULTwFZMtrL7nJ7acDNZyhEFud84QoIaaw8v+UGzc78GgHLMQjsGe1Lq91Li3+1fMp5vuIXvrA6dEyno2VtQ+sG0RwUIZbGoZCCiu2h9fM2GSA3lZ3MIinF6dslPYL2fZpK+Uk5lcWTmwDGpOXIkHIzq/nQkT5w93X0/MkxHhEVJmEcCDSjFJUGAv0/9Usesli9hxc26pu5jhEkNcCt8I7vIN4IoXS5ZKQXAGh1wJpXUphzOnort62/4bMlux+EE2LcfN1Z4XGZ0VCvgjY3KYW7JAbGIL/jLDNFnkLDMwleo0dfN1z4K4h/AYPoy2oKrc4NiJrkJAfyzGFqyQfIHpcQ14p4oiTg46kT3ppR0fA1McnNiNy1DPy/TS/tmSguu6UrJi4EVG6DMIERKjs0nu5VXEKKY7NCHzt/sn8nXGC/n7wri5URNj0+u/6LDdnvDZzVFBMC2xtqh+umnAn5LYNxe4RNnHtO2dCnFzo0OxgQLQgPuD/Av/EOyeMMz+D7T2opzvYs6dfnJL7Lk1yrbCxj0uzEHIVzI6uEkU2YOJ/V8ZIOLcnPhCHDck7Q/hAXnKP+5jvKUstitGX8POHTyzdUF3YWvaHsdRv8lDteCHZ6+I2lvrf+XhuP7TckpUMiYknGlSOpWl8w56fmlWr45prbd50EuVs+cZNJqjFel31ffCCFfc82/GeNHdOKWyvoblwBaXTr4xluwlMwxIoxHRARJtH2UTO6eBbunhFQh21e7v5RD8d0rbW6sVuby1RZYE4G5OZYJN5jC5kQJAUeMTCRZczbEt92C53tkKbnXFmLF6qpgFXsj7DPi966dxuhmRazSJamqp2xvpYE66rcd97eHphWrzIZGAP1o6Xx3Km6IFnRFy7cAbHPzgREmQQxU+76jJdrsqaG1ExUmafnnxT5FlHkIKbKde4EmvhGn1zXZ0L/tvmnz0yZCxIbUnCtcqhFOPCj0MZwnu47rrk0tlHK+IG0+FmrhNSi4sGf3dkzBXwvNo8d3vSz7L38wrZWiBpEUU8dTBHDmWDpzZKfxM7J2nZ6Ni0Zj7AUHD7LUIPKqYw1sL6VRvLnujo3xkCV+5dPAxiaeWrp66sR5S0FnC21n16ItTZY6y+A5WdFc5CZ6gljzvbln5NDiSrmFNvhm9ST56hNSYMc0/c9H75l4RxMro6vFsTxLsT6+Z1/4p3TsyjDAXp0K9isZW702oStyzvIguuCh2kL4Ns5u5x5fKdLIPeabrb9iDbqyXMdZ24ZFrnfkIZKrgvY8XNpNouzGOaaN31Ke62DUUzqhqFHJcYSJNmwplIZFgDJSGpge1Nezf6a6AbZbC1dqpSOElKjN3Nkial+2PesZ8GGEC6Ecl/5Emvgr21lAixNxx+E6Tj4i7npyb5W5O+dc68cpPMxDnfEfid/c6ica9CJJQ3UNsw8hFMMG9nvc8D8yTCrlUqfa5HK9RloShK/WCTmYibkhtiu7o5ZG0tOfy84/iQxz6WCoLReYFracwwpDQgJlxI6RXjmbDUOk3fRRRatSvdW202oEbsOoGbxaHZScLf5fzsC7+mBFlrpnUFlkXysFFQ3YAXfh024KwNGnwf004ig/CrXxxqOWCJahnZFMH1L46CnM4rciOMW+ZD11i/yTDrkQgto+jcjHG66GaJEZ2xQAEPyDPURuY74CtVIVsmxl/tRXoZesgDnEAGzOHoH5BNwXXxEWVmi6i7ntbHq8FTd7xXIXbDI9S2D79y/d8h5Uwo0PGgQMMgPsD76DR6mBWhrIkmRDhCpXWg15JhwEEcOOcgdGZsZ5XAHnFJ2odizabcRXlT8BS+diYO8IHE08KH/NojAPCWS0kPiscsdf6fTkzOLElPliUeZtkRbZnzEjycatB2HM8H5N9NqR17FTpuxZmIPLI1GiB8NrAIiuLR02U38K95kRXMbDn7ZAfoYAU91IpN24CNiqyMoAS5ZlSNY4Xsn5HXhGf1u37xtNivPy1w33gARo6VPPQq7qkTJhWDE+2JcpNsN8lzgLBRrrexJfGFLlyhro6TdnD5U1G8odFDFAJh9313pPyiR8tcZgFZC3RHBTH71uLdUcFMdFt+d3ZGanNDvUcxGup1KYjcIQH8GgCX41hxMk2c9zyruvJKDfjckkAbSJX+mxitYWNJzlw0agIpXh7EJxVVbx5BWULQC3/2CkmZTXsYwKuXhai8nmyXM99+aZzEAnTnXw1kRuyh3M7jh0Tj2pBQf8OR/iIIAPERTc6I1zb3fna8ge9XHaKG8kSBBDr/Jtsoo5RSsbWBy+GiGHcvLbmQwyZiv0jCxsigLE1g8aOx59UbcJ0MHF0AQ+/9Z+u4CcJhsjlepvy82rLHAGM20g+QqtwK6mVwKBheNbgtgaArPvn8uY4wm/O4/bbVdbal+PbdA+5/B5LYXpaWider263xlYQwgeJT66ACb8zBGfsMAWm97VEijv7LpaPxHqSbRGQa0P2gwJkm2EXL6B52XC3pPgTwF4pm6Z21+3ww43qvx58bbNoCzQQJExS/US7LmiS6z8xAs6T2w4dWTZvyd57cJoIjxrhdFBK15BuozFgFJrDYP7sKhRqr2hWn8BJhp5j0EvpZTHJn4CnCEaVMu+qvSrP25fpPD5iLd3GiOG4+zGYDxoQ2Pg4vERLQ5NpRx91uZ/TjYXy0ZzAAxEYGvReuPL7FdA9zBe5NWh+WlhNBuCdbFNpJf1U3hm1d2cYhx0vyLADcsG10NGg8gGDi+HGbjJuGhyh6w9tUvScdbEs3MzGcwS5f3BIxym9slgB/T2YuYkw9TsDWPVfkHkpHCgiim5+UQ3Xj5j8j6QEyTxgju9bEp2p1DFb91Z/X5mgi65ocLW8jRINL8+AXgilr+uwC3Yv7q1WA+BHL/iAg78PVQM+4d3d0lsX4wWkYJW+UAZPL0Lght58uJI80RXLaGzYy5+Yf3KLFkNHjBk2WGcW7/GTtjrEzCMPUJckPw5q4k4AlGRM3qxwlVH54ypOjldHbF/Dfnr2G9B+jS5RSX093xK7qafBuL8xCQyKhuU1o0QEgQNHgPuD/Rv9C/A1PeYdwjtIxyRPOYdLFgw6c5HcxwVEzn+PKZOlpGeL31zv7aBP7CylysAMVQzPDdn4deeR0E7RyzsOl7lcRw/rrtbw51cNFQyGZvhnvVZC5zBOFfYsXW1Mh6LtTy5rRBqZqxuZvBJ7IyigfsD51K8tY0C+JaMEpqDrSH+XDQ8QUKFUB9Le8711Oc/PbgH4IGC7OLfGnwniXrotJbIQJ7rHwWjhRr/Y8bMWVqwOfFsZ0jvuBwwLKxZfrN0s2/BauYXXHCr7Gnvjh9BusafCmKNSIKYimJuaQwqzIjD3QEXHphUyfS936vtEQqJ97Eu6wCdxtJs1JxxftK0B4vosAz49Tg9pC2L5VNwpFzJNb0T31PmQDSWjjJklC/MMwTQqTOsujvoUFeUwOEjYZqOn4uHFmRDagH08iwRAGxFlec/Wv4LCnDWgwEi5Z3Eqg69JozAc/2NsYzR9H1abhkAORC0/NJSHz48E5TLs5Zl6LU2Awx8npG+OclAZst8aRYr85JtQvWicazmP7C+p0MtzUrvAXW4CbtRx8ZU2gn02mZu5jW8gGOACnVSvIy4eX33hS/Oa3fsNfSIHxo0yFgc0lUvsvyK8GfUJPNn1fRSCRHxaobcGxdqvRjYPUcdVLrFzQX54+u1g1jdqYcv93cBG+OnO9kpxZJQ8ZCqCuuRSofEbeEPIVKaG08HGX5Rllq17KcuWxm2kd6iMGEKq7AAPMBZxzpqUoi2ibUuO2evJcYjYuOn57bq8pqv3qA7h9OD1XVni88J+Oa3gdZL9XwUDKbYMqPq1XrSxtDDwNR9s4NwFt5jI9HDt8ICdXoL447aKr9CbhkiX8CVarFvJmT8aGQsol3QxlW4Tc/53MWFSiNWylS/wOAx+D84Ibubt7/fEZTU0AhkyqC4FzawIVjxmwrlVOBp9+YsD9s/pxeEUdJTGmZbHrhngNeUPnUZ/vXKfc2fa/YEjtrcF/UBSMBRHCStHgFGGIbVqq1ArvXLvP0GRUVlpa6oGRWhdFWht5Xc4Xwf3BE2E1UH/pQPgdrLWcaYXOjBiwbTrCIPuQWhUZ8IJp2kGnXtVVotsU/CbaEYqwksRhq0EFBXLxx4Arqx+Q4vM0MDRdHNgwjwgSSgXXad0jqPFCfLRrQoGqNU+Ps5FdGp5fugXstexDyNjXKBv+ygxZ3dehis9P4CFv3MB8NtcqQ082Wm+W9wSZ5C6Xv32vrDLLAhblUxNsSNNFKPenmLDs6acFE7QelpxV+Bv3pmgyDX1/+4PkE9DbNSxexVCa+uxvo6oMXqsACyQZrNMUXbVDBPPM34aJJJYBYsBpMZ33QqxQdBYlfdEh6cqj2BD4UlnrGBkUtuJ5TKjQ7GBA4OA+4P9DfwRE+BbLiEwVFPtjs+UWTrvaKhduHBaGKR4Rj0J9SZcbIKlAV6L2lToBta0vDK46ZVeHubIaJvW1NDHran/vVv1Reos2qLNeakkHNGbX/oRjdKdqV0r3TW4qURmpq74l4yJw6avbKwg7w5IRqann7zv46iphNpsp5kNxO3XnIkFDArlRk2v1cXBamrrokoem+6zpr6p2DjeMmMkmPWrxpziSPOawaqwwTzYmiYrIrtOY3REW2Qq+BNYsxU+zL8yKqH//zjpNS9lcrB8gH4DtE1Ll1k5GrJmOag8Hly9RhP4vRdQ2ui2EvZHcVviZRT508tPms3twiZDpIy3Mc0PYDRJKXzmPTxbSbjcIJHuqzmvzVtx/HoqEa3QidAGvB1N0ynZPgOhNE4NBgrPjWkMO4iTvFQS7YRr5bhCnsFjR+ZlLOdEFA83qJIr3+5JS93MjFLqtIZ9SfaEi3v04vHYL3A6HwZGuL+F/x6uNKxUiy+jsv306t1trQWbYclmExUb1SGTpnexujGhVQf6kINOH44/ZA/GZOUt3sTz11+TYV/ZxJw5ufQ2htD+A/oORaDU0nrMFxiqy23sLwTw6bz8lhZoZ+eh4/Cw+MxXWcJTco6gXrh99l7j4ylfIPtnTBRKobbiJKBf5jN3FrmIAWnvzZTblatR9kt7vX2IVyzwPlnRzKepK0VZatBgyUxuXp7HUbJtSbgS53B0fHne8wf/bE4FGR6jA98ra+aiHcxV1QrNU+9bOVoiBG9pyW6TancpGhvFTLkEP6G6cV1rcwWTM29l2Rq8LS1u/c2Y5p8jBaq8cl/d2OWlgAjhPbFdnjuAL5j0qReBS1T0Rqky1DoWonYMJ9NmICPNq8Kwe432z/SsSN2PN8paTZj4WI7rfU0dqBnGuknKvSwx6zQ4T1Jq7DHufUAk6Kg7YGgEV/BsWjixXZif4ZR2XzSlZkZyb0Oc9XfUe7jZ41ARB69CZdFYvdq4pj6KB1SRl9LAtjEYTYVHqTU/rsym+YWFI3vyYPzrS536rT/nm34FgH1vRpkqnwSrId7voSY2qX2e/wdqEpsyLQ1utox0SVPFJja/wFotqmSDHMs9KFVXVhRKp9J/HSDjNmTOY3LlFWXrijgO7zrSrHm75DU9RevgHaOoC7rXIvx0X/vhi1mRZTuqr7zIb2titf3YiKrYvwz/7WtvOJX8glgujaj6plFT03qusMJLYniiV3m0/z7a5k2Y67K91XyBFseob2LcclujQ6mBA8CA+4P9Df0NG+NXqg2dT3MVg88GnImFEM8y6nh8+Hss48yQq+UdQmNG2tdNaKw2jVnYzH19m1QV4zJ3nNKwQsik9A33IQibDbhKnY/Lzgb9cyRw8+gsQyqsU6O2JDpWSpoM5OqzeAzrDQoG/as3FYRILe83OD0cXMhaYd0xCiXUysQM5Hzyov0UujKlAM1UKRHhaL4H6xEJA/8QcS95PjdtNOP873rVPB1+8IyK9ea4ORjW9Eju+QMEwN+HdST2Shib2EWI3VVKJCIE4zg3gXKfLksBZSVVp0li0iKMPYYLI06uEXcBYuN4qstxEg7BHyY5J2EHPiZF+AfQQv8S5p12vZo7GRjf0Z7iht69PH24fqNZVHlvb7ibDrfEFQrHImozRyzKrgSVGEHRVGTbh5OBLi+YHy0nrflDEBvzxH1Ov8hcbfg3lBh20G+HNXgWLoy5lb7PynrHP04ck8s8EL0hskY0w2fDbHiP4e4liImBt8o/rUpomPzZvOm/oSi+iZTjXmHeai05cHH0Jbv8331geYY245BPyOcpmzmv9Zmz/tz1/vYvKGJ319x1M6jX19Sp9KDm5Un5NO2p50OvhcgFUbJQ+JbbZGkdWvXwUJIxeq6BByPHbZv3bX6JFbBXwf3rITTvk2H7aqWSMKCZBz8in9bIi+ie4CnRzMOXAhUA1fxCLkbuXm0/hKnQY9bA7LAwJoXHoLtbj8xNue2i6Jr9u+FI40CFU/k0YODYre2lO1A6Fd+T+5w2bODbCsX9SWCwyYhWXdMN65Aq1G1y5R/715Yka5QDVOib0rrKHqDwDFtydVKkLzO6lxXPMNsM5tmLdxb0v5mgC7Z5aup1C7LBRbP60gOhsYu+rBVo7v9UxKFUq4SA9eP1ZIJTpzBYOcjJP4vlXQnk6RBcOM/uIczYx6/pQNqzL1xbfRK4Ohw/Xxx0S+m00Vq4QuEjmpjjTDqSlpPLHx7lQwToao+MMHwYhqShC+NFKpt+45qSCo9A+tgGY3Po74jHd4qASNe5uvFTrUl1QmzhYo5NZ6W7f/1n6QKW65FZnjFDxSFmyit0N75T4afYmkioI3FwthX1Xln5uggt91udf1HFq+uI5Wja6n/xkwWzLGDA6EkZX42rb/Z5uBumyE5tovSpXuLMVUAvJdtiv0WO7Q00dlx9MKswPslSW0qLinNWisE/960K6J14xIrqdp0h22FKFdf6XZzC+RMaHqq0FCZbdOaZH2ycJibmMN0io0Q1gQP8gPuD/yn+DXoZ6Mq4FnYnVvtz2riTV5eudyvI46hsGLNs8G2fFPzSw6zSpsRQ/Mcf0uR56UbU/Zso4DA104ZS4RDG84QwpQxEj0rH7sm1DmsvibuzRlK3b1fwaMFMH4OzlSm/HvG0s6NmUQHnKkjc0QsvwEnJH4EXxNn3TD60MXOmF5ICDIlTc/PoHdtW1fmelLYsw2+sFV4eVaT6ROcON+IyshObeDDvBuYrKsP+xz6ajCtjkL1hyEJj4IdY/7uGd0p5k9YhuGGNiBGnWW2JyB1Z3OtPJ72NndUIhOIr/xQlTM7JdXcziSfP95JoEM8SS652nsTqFOSuLAN2NkbImoML6mDe5MOr2Hjz+7tQEEGTTFia36LSN7UjeFfPsamM2yHoExoQE3wj0PXxC4bS2sgsqj+Jb1+v5o5VXDTf8ka4/4F3U6d4L0//I+4dczwzowi1EIyYhEnl/b9WHG7jjcfh7UsXFBygaPWmNM7p64wgbg9Euz3gHvNNukK8EFODUBMGTxsvxtvLVtUUdka13QhntvbDyTp9odRjWaDQWnxBcSVrQm4gEaqBaMWK87ANJ5gmWqGpQQWI/8EtU/3LU4mYh7IjYmZL34hOb9Qu4v80R02dnmOSj2J/JbSa7kAGSZlO7Mn4e7UwDsUeDN48APpTnWd7jWTo8CGS8ShH3Fg2JTY6PZnanfzUV670xGyHX4oZBmAucCG2sinsYPLq/WUx6kIdM9HoOSbNaIc4Tmczu3BXH9Mkaw5uLeqjDttIFCbxRMvshQstrDHRuw2m5pC1Oxq6BKJArOCkDRZaOrCCeax1WSUMImsLsnhAdA9xJq1+o8sA+QJ5iyOjTYK0i8ZzdMgtLFowSrmtpKmvyyTdFplethx0kLGU7V3AbFjLuLw5YJQkkO3HcDSqAr468zQqRsMpBrWzc6dqIyEHPINPAhv+oWdEhqvUWe2vt7MFg6zx9eLc2Rc0K0mKsPxSEyjKHlePJ2R9mQDvhdTKRHkKkHO9kshKcUIV0RtEwqrQZ3Rjmdk3WyHgBATaIASqa1mrU2W4Hwd7z7snTUSKK1Txy63LMDhjJSIzJKANLIow9WYFC2xO9yF8R0UcNmmKo+BbAePYgiN0OWThVXQ9hAA3wZfjJ4wrE6pt5t26BSyEU0wS1rAWh6kjefYqisCHl4Rr/X4wS2VrJjUqz8hZWDQ75DeXnD8Z2Fy6ZZV6E2Bpl8zfJZHR23Ljecmv64wm6bEYmC1ZMOuMel1loL/qYjXKoGFqyGWeSodvwaoLqCvSfstEQqel/rdZlTvt0eNq1I4P9EsFk5yh/Xbqn5k94WWciAyqNrYQK47XW4g2MNO9ngY69acnR7Mp0FdUeJS0dsc17qoReNxrWALRKjHeXgHtnhlAOtwmNLBroqlCPaiX/PMQKA+F3uaZrncbTudfTqzLo0SVgQQ4gPuD/hX8Ma8HKYKnSQ/BwQ0qD6kFE3a390TUhY+yIS0xS8+G+L2FUhCPyjLNJTVw3DPMdcz7OGLe2wz9+05cE6Wg3u9mV1CQk99xJVafT9eYA2E/i3o7+6pHWblEntT94Be08iQ4KsUEjPWPPbgMd5U5VQ6l2LxBB/DqpT4JWci2mcVu5aNUBYIIapPZ4JveIijQ44by15RONi+PWBgYfBmrwtJUH60jjFMSBlVio/4Pam7OmPEPCIb5uqjn2+e6VGQ44UgBpRMbRl5J+4tgeZJRP5B9yedWWQYatY+83tgBw+rYyT6sd20iwCIuO7YaqW+OIsPPXriXtf3qMcUdEI+swPFL5m/gXaTSqyT97rM7EWGYa3atvRD+2ABvSmzOK/1/VpVEx4FStoq4ixZZCmuui4XrvBD0sf0B26C78tOqnf7HZLuiV2s3g9HIj0d8nSuVTIfpirSM35Zg1NbTkfaZtlD/8xJt85wQLbH0UGx2bW1eBhzG7vEL/JoQIjVu5bJWWVCAUsy/0N9pX2KmZJiJCIKFGIRJdSZ/LlN+ceCzcahETJlgZ1OiP0Oo3UylAZHIae2ZswnIJGe5RBdI0se+UfFXPgoG/8GKp0IrKjGU7mUGjBkZ1uAM+f6F4Sow6a4SqrUrhVd8iMTIi3G1Zjnm7F7NNHe8coUpy6lXColwXjungPNzq6yyM0vu9sDjVbStp7SoR7LbbT7EnhmskRPraaNH8UTxSIp0VzqNXtYWUOWoL4uE62LgQFiuiFTVykRvX9YLu6Xbv/xcASNvICW6xxK8LmxKqQ1Ngcd7hECUfiit2qodqJUTNt7EhA1eb5zCo4JVOR3KAh8Mtu8H/4s3q0Ox/MYWmo6pyJlVSjWDQ9eWZXvQ50eAnq9U4Fu4iZrZm8NyIiiJClb/uXpwZJgdyLVlj+j8QgWCRPbRM451+BLv5XIzlUE7meOWOGXEwEC0vhiY0sJRmJ9mdRplE2e6sD2MjYiW8Ho3ijiMM5MhCa5hPvFMm4FO0JfcnEhjH5ANZdzNIqCteNL86h2b92UM8P2GBADtgdW1idP/sIjQWys54ydc91vnHFhYwMslXDC2uA1mhs5trgKjklFNQSJQzZw8kkz0IOBzT1I4xCAFV3nQRB6QeTSQXni2YkIil9cA6Fhhb5Dtd9/swklayQVGYWKXyoeiCs5EwPmqxqSWN2Qesivk0Qc6EzkOT0joWal1dmKlZAL3DKFt2nQXvsAujPbxKNp1FYjfX0ievKVaZ+THwFsUBUH03EMqIL1R3II60x8pNbd0zxgK/ldavfjkx35l+6J0chxsX7u36zXH2y6kELvxZNbYFMwV7CAvs04O0rx/RnWUp+FBffZoHVgWf8u3wyfARjKUFtj3tLWYxZrIC2A6v1Uw7BbDFsyfSxVWvAb2LItWKk7Cikbu1cnqSqVR/u0XeMh7q16QAqO/dnIYJ2H5lisqXSFECuw1IDR8H42ysKea5FAmqboTXUlrWdJubhA+RPjO11M+V6JfxXby6HaLxQB/PdTWMFXDsqUMhTuC9wsrb6htp3/zpLV/o0PUgQR0gPuD/hP8EdsxT2ANbh7niIZ26MdaWiQUOU/LXg6PvtCvDE888B9k34knqStwuEPXgUCnkuiSbC6iR37l9AAlzZa2+YrMm+0BYEe2WWrLOJ2FbP+Mz0FCDYdLUjOy+xQVKsvXAtDWTVDOqI4EZfevFKTnENQH+CguOhmxi9ijzRuEWLxn4WhDPZfzPDAiEDUiXIeXM8oTXCQiP4Yol8X2d8y9+r/921QmOhFfOx1ItbpAmEWroheoqIHygrhqUxDUxIlgRi+OHljn1mpbZKN5AtreacyZ2IyiB5nNkGk6bgVQmuiZacijUoINaRumFE52RxILegGEJHIB1Z2ia0q33ueJ34YuPOOjH8/D2OU1c+Op3iRO5J9A6eEYchkc/2J+FIX7X9ginloe6JUOJ4783Utf8zmGJRw0JKF0gnhrAHFOLWRbny8EUcivBpNw8HqMgdssqwjVS/E7fo8RtVSt7vo59dQJgWcyui0OkSjpl0AkSgQntiLDKlgQ0H3fiVINd5u1mJF6T38KemRTm+1YN8jJEl2D6D2f2R6wuprZTUHf73r97msUWDzoXCEZOezRJjmGPuKx8TqUt+ZrtzkaPEBSBoJe755riK/MJRC3t7mlNBCgtbQxPf2GoFBdOvW2PsflS164qgPjb7Axwtt0QpXH6zjBak/8VScjaG9lXiFGw8HgwNV/zgf0TjuaApaoLNkEyTcjAlBz4Wqtu3qQrB13n7Tb6c8/NI4M2CbKHBNTVdodssXhmZoQhKEkrEHpxTtT8sWMRR35OSytcs/C6umw7r3MZh7UWUvhjmuAFbgFfB/2+fhrrEq976DqwQWYmYZF9U//h47sFCiN7AxNa02qD5z2bQjhLUsg/hMWgSKFehoVaBeJEeq1SwIYora9F16R6OlmNGZBiOkXoS+0VHAKDD8pwIBqwl/upFT5GvCiSX39ydtrK4A7utdVbVRd2ULXaqAorKXsyeycECkvvNUYUtdOdTa9K7gEzxr+0Kj8HWq4gJtAKE8dR3gsmg8Z+TFuizh1RzuweNaEhURW4iAKG1zgFXegABmBf9VtXRUY544rM22AB6UVluUrbEhVlMOUmx7BNm+iKTslTo6TNwEA4eRRRoJ2aCj2f5kxnycu6qSBemOTq6vCftoYt1HoxK5FinfD3SaKLL+cLe3wDt87BSHFHt0CsYdTx7fWRx4MszZKei0PtDyfYCcwGdPrkMcOkNg1oXMwYMJid+1pWMsbx82MwYdpn+7HopZHzKXhSG9KGvqeAEpwcWjuzo+42XYAjbmcxnY7rL6jHn/vGVCjQ46BBLCA+4P+DP8MQX4Tg9i0TM2QoGY1Ylid6c3NF8LD3thWnqgsX+wCc9bUmAnKjTY4vnoAbFCDT7rsiDUX9qNDAI6ZfrYTFaEaTAtAm2JGn5BQaJ745VavoWY6tYVr0FwWIVKUBrpxm7TN9w+SQ4lfzgNAdr8snjtoyayCR0clHst3vPgwNzvTbZ6cvGJTQ6ncWmlmk3R24LAuDqiAAqpDdvf5xGbfAw3eOx8LBeGJJp5NqRRDyGW5+NUZDXzMKgmxTC9FrczfQA+J2aZw9c5srAwST5RXcbrvOx3dmrOkmCDtDAumn+7ShalTmQr3Zg86B0AY2IXSPdCXazP7yflJIh+E89HmqR9sVZHbV7wrYmIkzPmgmKWUQBnWynDr27iBz/7BVBz2FiGz16MJFpyfSuUkflvIfAbXhAf9ePqrPqppwCpIAAYxRRCAFJ9wEEEiRrmK1JLOslzmty4OGScPl5SP1Lssc4goriHy6eIjgKuS9j8RWk5kWOj5Yy6JAkrFZzWh+30wm/A0rzK5WOtOQO6iMc2g2QxdutDCefxOJOfqenjRSovqTa5g8y1txv35ijUcUxRdP89utb5WLByvhdW6Hnb9b4fGmoAmT4AideizujaQAfHb+0iieoAScL8y3HVpgGaPy9tsnpUXwZA7dz4ti5hjYw8VAsh7RJsRzZm8+iEtenyUuzSFvrTxQJWCQCba3qYjS/H3hyvCSnbzX/+PRCKyZNv+nB8l4E4uCnciD7EhLUBF5bBCW9ZBZxkJOxUQNk4djvcc0PvoBZPy9VeG3JJO0/a1D/9fvMgSg9jLGcF7ooAb0nDJRh3rVncB8pDMAOg2hEd4U96S/lMMiB6J3FF+VWgHIx7oI/WSeqPzbnWSwz0I1U+Vk8WijhhKEkghWeNUBtK0AIK8M8zNGcazlDyPPKRxgiMNt1OGOY5Rs5YOc63vsIRmXHXj+wV4Sv+5XlFjJOr9CuUaYKPM1bC1LIuvTCQqVecF+oYDaxQo41UIf82rnD7Moi0Bc/1TkF8e1t7sWoUEm8BdlyKc7nVfcuHliqPIcrajO9B56q1dtfAQLpdHh36V49kFMguLUGhJokyi69TmabfWVXCRQM0rb2mL1tnJMJcTQW5Bdy5u90M7fgb/4P8+6e64OpPHY6JkoawkfX1vIA20h1QMskLSK2IxvC7U4CTDDc2ePKqtupjSuEl+8Z3NL3PBo0PzgQTsgPuD/CD8EXZgzuWsti0mPARD0c8qIxUcUL7ygZm+Ai7F/Lr5Gzbw6cohR3wtrsJt4TIJWVlfdu2pkEZxGLvthsuta0fyxoMIXZrFUwt0xuQ3rjipQ655hR6awYwp/6St68PG1ZT47PveEDG/7M/iBzKs7z/893+bdlzOx1kBrQGCXNkAKrkYONNRLhAxRKTZLwmoi+tWJbM7bvZGaWAOYNt5TiQQZFTjUM06OaCXUBrVtsZFZjBsTDWR6ASfqFR3tsmTCNs+cqn4KcrRQF1I358Iy0uAHjj+XY0IUEkaGbudbo1rjq2zW6tdLGMPUwb28Q/4VmD8OEue9IH0k+R/pLj8g6EKLL9usPamgOK3LQK8HamsOGDlDPUSR03lZ7oYKwJ8SG7HTvqmrx3Vmn/r55xrGz6f2rCi7je+zD+4qs62a7EnI39S7K/g0iLKPxm/eBiHK8ImoV3vC7f1sfQmOyNMVR9iJhTm1W8xwfuobhocFDwRUxA4gtZnvZM0JQ3n7CP7cZQs3o9Fdm12DSB4Gn8ROQ3gFo5fk7ELJozfg0iiOyb9FwO+8U4X39PUJ+rNnSxSl/H4xA9ToePXGBe5qohToCLu/qpgwJHxCM4VuMPKgxiJNhi6vmHZ+jcv/nBeSV6rn6oCUhJRCCKJ09im6OD0TNa3W32n8fZ3AA3D51bQH0AyTu5o9JAnYDLWVoyoS+50Wrwze+2/S1tX5xnqnCSl6fSp5Fi4oxRlgMCgib99Pu64lJaf36DhO7v6Xd+t/809BjjXc1t8E0GvkUZhIlNaekBpT0UlZF355nrlJ4ECqY10eE0vN8MSbTwWm+KEJ2f8Nv5G4lBWeU/W+zi5ElVBqLCghW3fc3PiKsaYdeibpOzLyakojvAfRx5XrzHsOkk87kmyRAHVw75rXcaLGJ5GWWnu1bG6zz86s2TxQN4B2ixE1Ox+VAaqd7cNv9+VQJs2ifVWwRR+Gv/zGDtqkXXzkuBqXeV6me1vHe8kDMFc01xNxlb0EKhKOPNietKHuEI2Az0FY6ZPZvx4y9vyWRI44pr7yg9racxv42yht4miDBihGxHV8YGyxp/Ur8S5L0pmf5Y+kHOh0a6FsvLj+qlKYmA9a7Gv2OqEyrNQYLWwadTTDBa/jwb2fbzCaISdWIWrkBdbheQuaF5turZh/J8X1E5h/qB4kBLPdcYwSkL4iHn/Of3bR9UIeisMkDg6oqSOGWeHhrjxpURpP/obzM7xUbxgcqtmEe9FpM25/qED1DNjQYdC0KArJJPx0i3JvO4uM49asGwYlgVSpHF1Y7YFNcUzY8/n+w5HEH06gmkP3e5XLwli0MHO0FH/K48Yo0OCgQUogPuD/wr9Cxlz4GEzhmPCenYp9S/okHNtv7jLU/bN3oCwepstJR1WdzixpaFYpvvbHJ0YDYHbIdYnsUVt+ONCUj9uCO9TEztj2N6KFxLmdZndtzQ6cMSLeYZmVsAEg1bepfJb20ISMBGvQnUBvateT5PIJqLrkAUGv5IEiwwb6dnx2XkfyTcKAEDveAz5URtY+H+5dG4O7Gvm0bQ5hH72b0xNRIm3gv21ek0OlpUlQBPATD1rGE3oMxfVw1lvRSLUX4OF8R2Kmr2VpZh5NjkQ1tHk/AKVGE5c6pbwPpMVIA8ihcBqGVOzcAKChnZL/GoYArlcH04RNkWEedrVEa0m3pCplQm5vCrYF2sW2OW3owEKA78cGizg9Rw19AFl0pQxgDTvMmyb8pAcq5/wukgVdOlWrZNjYlZrnAhUNfO8xLMu7GKLFls7ZMH54ruUorOTPxhOwQo/2GYsB9q9XXqO0WZISG2RtlcThTSU7K6YReGQFCmLDaOlSaGVvuZLuwt2t0XpVH6UbBE6rdVdsvQIZsutJPFa97l6ITKyHmh3HVJBU9XputSMKFxWqtzyYM8ruHjz4Q17/1+yaXzcEITfhJb5RtCco2s5LrveuxqX7/gnPNzU5HTZVqaqi3nPzAMWjXdhquB8ZCJp9Pb7RvgPX2w+f2/79rFsrmBuLHQIjLuZoajJ4o0jPEwhYI36cWMO4f3hhb6NZYt3T7SEMCv1frHQpYSmF9hctu10gUI4ZrFxwz30VEDffv/XWpn4ZT+mYnZQoYFUJ9HF4cyiJZOa3WIRQRsmogAVB4zyKqP/MTUpi7LwUwy19NIY7wYL5hhzH9AX242ca+12NpEbF/B24D/zYLpKpt9Ht4VWRST2Jrd9Iw04Iglwm1F32JEdTghY0J9V6dsBHP7zEWAKK3Gc6kH7IFTxtvBUbDO9UjodbndYqia7yjoDaEoU2/QhQHtg2cW1BWl+qKn68uvhvnzK3gzXBjdJ5at/okCeTY0oBNz2n4XKK9EnfeI4j5wpsNFc+2pTRlBsip4pFVAOiU3BFTpYgs4LsD/3H2DK8rmRzZg+xBLWLhEFUt24S4T0goRv4hv+K4wNnKqiVZyjsxUZFgfb+apK80Nxm87EkcTYLsuKNy+5JJovRG1uZHXCqeq10lFzhvDURX+w8hYNuil5Gz63Lt0J8VT61oa3eXnwTKND4oEFZID7g/wc/whwL1REJXwYnKIeCD81JgOkyFOiGZ8w8zPTqyTnDVKFQifhe8UG12SZ1/RN8pclDWj9DCSRJJqkw/6Ro+UKFmaG1p74PrTNuAkfxerXsafdymXHzWBn19xhwMZgLRfM14wgIcyTiir8luCihkQtWWiM9l1mEaqKncHpHQgjHhdu9ZdCmM4DFNHggvPwnooTnSZMHSCgJzyUPCVxvNY1bmQnyC2hHY5c8Bo7jiN0H/4fEdlCbXZ4V9y2i7hb4zRCE+BahA6PIcW9Zj5/fXVtJtkFMA2ZlV3ULeuB6ZXaqJlBCM03jHuLM/9Im6ZO0SBI0vei4KFFFh0FmtL8LoWqViuj5NFBL0KzCCX7rzOxU98zW8uaKVuXctFKpEt5uh23RoqRNXUmCJdtfIrpkk4D+4bRh/Q/cNGkYWUn8mbaHrQf/B8uLzsrMIzLKdyoZyrLS3qh99fzngL287dHD27q3jcPIz7vsipsX3qDI3KXPLog9LrwgCBDt+G2RrPnFJW3WJnFQpCqMnL1T5Hg8yn9NnS7XeNZ4hqjg/smHvl4Lm0Fg9js9g1niZc0i7Za4Lyf4FRGZki2FQ4uvyI3xMddrLHIjdZg+edYA7pRKVVZ8opXUzecrYNgKxqUTl0LWcAZkIh78T0iaSYlhDCAY1cIt8P+h5RldqFc7hN7b43FaWkwPm04sIgJPS3W8n/PmH2mh035c6847gDen9IObl0qWPdYtdYamE0JmZRpqWR+vPTDDx3shcvKn5B7snE0pxD3elUDUIhIRToZiCAyBonFu0f7jRURzpPgohoZemMEOJr/7Q/Qn6qIEUOvW+7ouJFoHFAjd57+4gYyND9cv4DGSHA7J/434ScPHRlxuHkXyMf/s5mCS3TUW1Ks0KvBklPiZVW72lUL70jOw+Ah9v5/lHfA5QyapN1iqStVfXL7kRBg9fLAH1oEwHk21Hj9viZDjLqW9r4McyE3ynAdKfLcrlAWbi+xzHReVH6RNOL4z/SchlIBrmMuUudeUT3/gQfho471d3BYXKMMsoClU9ZzQ7L+/g558fmZeutIdTcEZ+aSH+eCjQl8tdN3vOIRvxwRRTfDYmBTutny/BASok7Q1iAJ1U97k/3hzf19kxVp9kFp64oANAveCGq5f9PM1hTy8abocJ01GN5hZHjBwGSqj8GHyOFeyAY+z/wdAq5spmnhlof5KmvuQPX7bM5E7Bo3NtxOo+pDChpO1SCAYCcIk0w6loqfkqveXL+DUr0VNvwTm2AtQyMqnvBiBpndFQ7izBLjywylp+pMsKIzYO07BPZMf3IGxAF2PQKjRAuBBaCA+4P8C/0ZCQthKdg+FNUdCZMWuZjAcJOuY5NSYlS0smZ69bZDft+TU5LmO0obCum2ZOkTZ3D/PcoEdsUXUXhW5P+3+G2eHQNlR8+RG8XYtt4yg2nPUMN4ZlgeP40/g9028TM3Yj6AXPXWwPkXtsdVGq6L0H52nJB1hUgSC0S+5OQ+3JKF6bwBwdbJsPv1hjfcHL6jL6n369AkSQjerIaUPXq4KZANmeZK7vnOTydSPNbhl97hdHMwICKXBpIQ68kHk4EKSaQBkyFseYPLwFMhPn/8kcfKMTK23B4A0XsB91Au8BSeko1OKHDo/Fil34HHDsufKMt4zlhBFtJCs/Et3UyQprx/SUqTTJ2Wj2A1wFWgbfzlxRcMskc0DVko7sdU5bjFdsqgV+1oP8qMyvROkyirVuFekpWGOvEiu7BJuGX4TNRXaxpnZAklxte3xND43RyrCEs4KO8ctIYtNUWmRpxFQ3dqaHkziuKvZ0oAE6Pu1iGt7p6uiwv0DfYShBqpDHZIOy58EFBdrEAXuJcLSZzdvZNn4KEDGQ3WRTHrQD5ofvxlAKcqI+Um8RNSFA8SfqKuWETNdiPu7uqZUoNWPB7dKWAe+Qh2TNa5U/bnUy0srOqaam9It3ZNLf3/wmNslrVXlQWVsBeSHS12cp6cQ1oxhpIKEstnQaPc4xZZakNG5dHoper1viQcg5YUFDtY1S64FcqVeeUiqO3iibiseMs5bAToqRQv5nHbPLUUDcDVGzmzsR2AGzn7sV0ZUmxkH++3tAro5VQlDE3aMtGfdYOmD+maaXRlf/2fO8rR1sb8Bkb9F8lzwb2OjhnSPVLWWXRFIpdKcef1sD6KtU5QRHhL0uq4W2hYmaUt1QzO2LUDqa9DWt6GXj4vge4iO1ItjH5Liyqz/7K17E5ytvPzg7sTFFN5wp0TFAJDHbnN4dVghRjNaIvuv/DB/hbV3OQID3m0BsxFEjJizUdOr6UX4ZhSYItwZuJGePc50fk8IluzDg7OW4T/8dV8UUO7EyX109qVe4XxlWbLXvuvdKptEkYwQHIggA2R0w379jxZ7aJmmtcWD9xl1X9BssEMNo31mQ2gRQGcLjPvnVvDaN1SaG2hODL+yVdMjG0G4X/AsNqXIZTQFKkvmMk8Xwgm9HdtRrgjlH93Sg1jQ5D2aP/9rEzYxBz4ZJa45QB8Bbfzpejw5ht5aU5ZKwLsp39MX4608rq/JO6vMpgE7ANKiOfGNlYpwq706XtDxB3oVDQsz49lArFBlulg8GchIj8TfW8yOdmcztLQ9evIhS+qQvma3RaGFNUX4383Ahw5C70T1eoIw+ahL4AOBy9fX222uOLuTiPUT5pWBfiFC5kGwjRL5Ujnu9H7osejQ36BBdyA+4P/Cv8Kq34opEW7bnP2Gw4ugHZ4Bq/4d1c7bghF4wRpEdLOd0pwYYZU99T53Lq5NjcvH4wWEAT+0YRKkffoEUnocFDxTgaE4Gb65ozGBM+I9S7TKV6u6/qLIlUmCfp3muKX9N+uGXRqcBORxksI/JfE1YoJNQeNGnH2hi/+qeWMbB8B914QeRHzoXqKy0T3Ene96SL0XLseutbisWftVv6Pu5YMuc3tkt1wGHOC+zvr5KwvrYLWdA0ZCtZpsT7qfstYQm5RjvgxMqRtcw7vTA391vU19cR9zBytc2lGms5QKWpV9tUkEFACrsOlhMXNhDVEPmm41QkcTNw5LPx/5CkjOAz02pfaWwv29Q9oZFnHS7TqTdXBtPJP7n3v7FEWkRIa4i3rxAZQwRi+x0fv1kvjLS9u1TiFUzPliKxlY56jrFfn4+elHW6gaWot3jP4WfMLAHYiqpN81g/6ztVJSdhfC0KHpd55zxRq1HIIr8xW4yGLzJyO0ozmorm6ulWO7Cg647eoKqSj9Oa9mio2L3cp4wq5/wDbzz7xUwwNXn5IxVuMfKS718Wn7RGyNSzzZ9YcF5FzKNFgnZ6LPO6x8kWnovav76JOuRGjEtIIgsZLZmf/1AB9dpxf0lN4016uSxuP4fHiH/v7HyI28mCSp7XL2kn3uQqE9gsSdQ090mUxkuqpFta2S/jYKXJdnk5yahVa7MWrTuK65YywglU1RY8PwOfBhUSYOT5z+EjvSWbYtPdyzV1hVZkg/fTaZhMrB07ambYs12MZ/q049ERaYmRjD1A1vn4d3EpCmCYm0pbPAy/8Besyn+/2g6SEbLmnMzp17kHTs4ZDB3Pj/OqU6zYm1vjkPlQG1oDeDuUl6S+yHtDmJO2nuZIORFouMp2E2IfEbBov1/OO5fAynB9A295qa2nFccTZfJ0FWTPoqGL/w7ZlFoxKtYdacwZmT4DwrIbs25QF7RVlyp6DhMwQdPWNvhtFnV9tAqX5FIcdTC/uW5nhk9Pp/+A8aOxRGn6Qeey+1oYkoZT+7SebOCqw5RibQlluQ7VOqXiS7XsYfr91a2pdN4oJiO3x7n8si6Gvp1tH1JOlDa1N14hDbVdoy6r+2nFuFMAP/YfbZZwqSHrHJ+5vm0FSb98bFoychvoZENKQDm0MkS3Xj8VL2zo5h0ADaA0SXlGJXjujQ+KBBheA+4P9DP0M2Hm/y+/UDh2zma0Zj//Z5h13yT+bx6aE4ZG0dR3EfPZ/1xAq3y0+tcAKa/ePWJ0zOIxsRX0XVW8efwRIJZgR7Fy7i/S9H6lZcmugbBY9lJAlVxBLcnaW/VXHgNKiyGVRb/Cds8ew/Jidsw0Mjty2QpVbi2CKafZ2iBu5x9jBDPmeX1fsbNLu3dv7/1DR1L/M+jyGgKpl5NczgIDiZkA3lTbiJYVh90Uqr+dAqgYuUj+CmHnLfXX6mx6GuF4JPIGsMs8kB2jzcjg9mRnh9ZJgn955unI0+76WuyBjM8/+FBkX0tsjpf0kFumG7Vlw0HIKER+olGQ7IS8s8hb7RV6X9NFVRsoSnRsalC9hrB4SduwWZSO67Kge62IZZ/KNhnq3IzRfU+luzVSfF5/hvNjFwiHt52p9KKjJPl3iSnXSyWU9OTOBsKNAocmugNjinv9uLlc9hIqPXDqa9Zjs3+ICfYpVIjh6C/qCnDRnefaWxc9AligFIk21kKWMhC8jt0GK7o/4SXlyV4CEmy7+rRnYXKf8Ef1RIzbsDUAOKaul0B9eTm4Pw3xWXF79NLtdu/8KtDey4+AGuY1fwnU9bIpYHu3l58ikk9gGpMszBDQ1DmuQn8ubeCjLf84U8MmKpg0JBEr0ZAjQCOlKEUww0iq4/kaMiBgzssAyOKvnU4YFE4H+35pB48mJm0QZ1CzOEOtc8dhK7aywWiFp9vdLIHJ69zds6gFelGqh+8BuqSanoNVoDkf2NJN+iyFvHVCRSVaTIKl2gifG871tDJE0m19Qw1IzSlcQHw9yJbTfqqcwh4OILqId6F6uFVPYZag3wOuoLvZPvfnlakHsO6O2uAerXrKZfYC6sEb07NEZgBj9xvbEdvdgWn5awSflEiqvBMN3Mm3town5ZkBID2HFgCKCtlBeE+ipGV0iKfh/kSyZaUOVp6o1Jgt6y7vkSmumDH5mEadjUANt+nAnzmNyH4Wc6xXYQrTz+Pde4RNi6YsiJweFwoA9Oyj4XNQQx+Es2JNuwW5N8KzTtxIvPmqImk2hJxhAb2jWr9D0GrIUgieZwKDyyByyFA61pRKY+7YWAJy1dMx303/GoPyvtHy3O3JIQPyKs+4YJEV1yY7A5+P4F38AAb7w3cmcw0mDMP2MarVNKGFszq0nrMFB3TO0uydZSb+fuUbBZVxU+JztqZZj7bWEy4YMLcIz1lVueZS+9lqLQolOHeHk3vZz4IAizt9w/imX2m6vxbhZSIzVUaRvcw9A92TI5vw5lxRbmul2hmmFCc9+A+h1FLLZisV4q+NrKveFDn8TW5y1o0OxgQZUgPuD/A/8D9jXuLHxnzchsXjWqRe+aHunccQV68AizPxIvNG5ZqxYanpTGxD4A8PjMGFJro8Gi5+AyZZekv2GvglZ06XPmVPGdomGWPxPwtQb0syfJkhDFPqszYU5L7q0hi7n9z5F0jDz8kxs0VYm+7UN8YQ3CfdPYcaHW7s6N+qspIGyvMLVmRAgjeXeLHTj5PVO/rQ7EvbeCMwQ6jKVDo2QySlzOEYOeH+Y4nWTtjeui72ELGbWvBa8jUdZuiA4x+JfZFfmcrg1GgCkPQbdhmrDypn2hBSpamLFVgcclpUevbcNAr3lXK5xa+0O9kWqyuVALAAXZm+U6nEbKde642x0oR8TUY98QeGe1Q34V0MCZr09qSlib/ppJ6hR+mqNOHI0Tv9pRq6+HiSoxOR1ZY1cAGkj8YVqonYahFUKrNtLAmZzgzjW2zeanSYb7VW2PevW8pA+WwmEpBgCEs8qwUNy1A+c2oSQhYLS423d+wm371z6VBQPfdfUuyfkHGAlXv5awwpsKOJMXpI3BkR9Z7K7hcKq8pggwfqsYOaFMsQSL3Sg2BBDfEw95gRRDfXawwVTxzvo9Uvu8KjNkdGuk55MNqW6LPyzBezr4iy0AdAiFgx2YUBC84PtndapqroIIw2I+ip/PNmcfBXIEiXtlz9PTRTCHyoCizxurxPH0mOI1okZJXFh6f8wuGGAjdFSQXZdihO+oyTHgU7/pKGhpcB4f+O/lEe50LHUXFl5gdrmD6rii9FAxS9P6v7zxz+Vx9wU5AU89CBCmzgP2Gfqv0EyT+hWjiXYfi0UAvuFoH9MkASRLF99so+ZiN94C3nGxTvU67uKrNlR5n12SRckdjoBvyzngvTQDP+tknNOkp5ZrinLyjfzhAWiZCclNwbylcRgJG1F1vMa2iYC08xGwQrZ0UuGr3Wznhbqx7Xt9rpPgzJSKqdj7pkAKRb+m8R6tirl2q0CxQdkBSvq5h1EI8i0tOJ22fQamqMqNE9QmM7epTT8xNXgS7f+l3/DBWLHUHLGiRvbkE15w2N3dFCBZWcu+MUXKuW7U0dEnadGKis9W9WejfV3VO2dmIZFCOEbBOKQ6u8P0oS3PV6OfQXNyGVCTttlD4426p5d7qPfpVsfNUI8aMMtcWC7FFP1izYOdOyy+qDwSFpXRlcCnh3ziSOqqBt0Lrn9FFxZit2s2Dzj8F+5xWnyN+f/rZbkDQ9HLNWb+OWvElTS0c2rmjpz0i4C9zsfbLmuVlYOPIy5o0QDgQaQgPuD/gv9CoPlraxRwR2/ahFeGXstg1qFPLyPnJpJKrcZgtO9Y38LuC2Ubr09z5VkvVCoiidUlixA0cTdF2CiuDDgMIk5phAuQ6Rbz/9n8pQN7LutcdZpYdeDxiHmSP9d9UdRgaDa6CQF14woAcGSafHmKRy2KRsTuz55OCsXtWDc/cA5TQL79Kvb6K4Phqa18rSr2e4ry4wsqGY0G3KhiteCPx/eZ67ABdc7KVRD6z932+44KVTfX9e4fXDpnIgOXCGcjpJSJGd998Z7/WhvUGbiiLWOe3DeSarYeZbjpJAkezrvOZfYTLeNlcCTPOvIK+ivnCKpSrfQYhdtbbY7cRemSiwDHQLy3OJB3hxDA8VGGDxxiputanbke5z976t2S2StDSZNksMEjB49KPChu0/WHPPLHs9uhcQxRU+DEb1cVkqVcVqkA06dLpp65ca8gfNrN1ZBvzdHQxuCFVoExVCj8JTyUOprrRpryDkoQBpxlTF7aUxRFxZMQOpsVtMpWvTBFI0rVs5F8E/twMifbubHi6RA2m6sSARjr8vguyFLI0OJXF3YzW07uYmWkcY1n83IumD8BkFajPlT0j4/BMWUR+vr59rQnfPA7qLsoQN6vd04/Or+M+nXvYJ0/J7wEPRMpx0qbdbKwibG19PpQLKDqI1hrzx0sTNE4tvijWEh/Ks6g7JxVSGB4f+nVeoXMWV1SD6mr3oZ4LIr8eeAfNdY+5JR7T4V8bZDWy0jAtglT2quHfiqcX2Tc3NK4hypkVU9LouKKxAGZwtKhd5z5sAgr27KvX6QAEMWrqpswpBNaYh1kQemTTgM4YKwfZnVzT60BM7FtY1MEyCvbagEN2NrttXMS5J1ojhmbwA9VD+1H54VJ3EyWmmABCRWcwIEG0n5ucYBLd+FkH9lWMxxZFXXE9I7JRKs5eRNk4RjAX7enFgUmccdn7iGtf9kbRqQhQKl9rf9v09gOON2MtmniG/oMwYZqVW3Pp55XLZmm8mumXMN9U9tlBDSahg33DdNGFIJ47FCE31XzAsfYqCwhU0jYfkWuAdBdW5szMcf+F/j8s8xqCNf3oqoKGNZxnQ6ZH/wKSOWD2ojPegYybxRbCafo44PFWb5P61tp5heQTqiesWDq1LUq6rL4rjHLU+qtoB/EYvJ5mQh5QcDtKuY56hJtgIgw5YUcs+Q2edBReVViYhEh54Z5DVhGdAZd1eUC5TXfthwYluKbi9w/cuXmlgHowf0O0vWT8lrM4tYHY/ym1zbF0XIHH5mB8EH7Yg45QSfe509b8YdTiGbB/8/4/Y39PyJfuGFSP7rtuP4g5VGjAa75asICExSnIS9S+qoPr6n4eXmUN9klEwen8YHUKNDx4EGy4D7g/8K/As/JVjKqfQarcK9AYKWkA6QXUEhrz1dFHZvbY13jAuiout/TGahq+Mpw4bHIyHXeCAMZiDjlmYMTFaVqppFtpF1mIfuk5qaflcUv1QM4D+49ahtFA42vtnO11DXhTnQV8j05xMJHvBWMVAvqDXUtiWWGaRcBoYBDxfSfXHQDxESQxsbCra1xeYuBtFr5eGcF5u1DFkbfKJt8kXK2fqkdSt0VVJgb8RAMN4MBti8xsKLXnlxqSglsr01W/PReOzlAQ0l2Ft62DApDODNiWLSVD5VWWcqrXCJXThxugB22wIm+WZ6KRck1ESQ8qxYF9WIhYH3vPDcUIw6a2MBIElLRRFoSgSzXaFHo+ZX2LR2AxI0/E1dgvQsRy5U/+uWSIPayR/3QcVdEwWjEF+g8cMMC34/MaoeCJPWKq1HhHyWwcOdf5QesAwkfIEjOegNn/8Z20DuEn1+j5XXJCSmfPukegZozCxdd7e7joPeGXWeLkTMlnxL0y9qgtfzHEXti1dlmkAvrClqqvIVSLDfHyGdLS96cT+ajz0vWF3FOLujh1THWmnNq0r6BrQJ6HXNDn1aoWSqwr+PV4lipBeZOP5t2rgY8RtL2eHgLmXVm3br2AmJwsWfzDhFsmUut4290E/KrqUZ5G9/+7pBkiEVtmhHz/FREdjAKFe8n8L2BxadDefy69yv+j5XofzZEjztMAjD7b3JliJS4qBfdPaz2Ydxpt4OVVDQjW4H/yTfZoyO4NnEsUUqi7wMd6RFBQdtD7Isfj5YO0W1xqJrfqDoHA43L9OfFzkrtiojyUm2i6ShFdB8tIFtESDPU5Ry2w9R/5/2EE7KTFPnrUX2DpGPjmrUOrNEadTp1FoW8ZgVnqcGdXzlUASy6aDTS6yPNFbvbSDEJL9YCYszwYXH40VQv6nPLgasLlt1YNqJ+zbIIPnplAb8eaUeTqQto1XR2uAbQKrApoQ7121xfM38XFMCuXIXN7yZnaxszq3VkTBKM74YgJuvIwuagsxBP172TVvpQkFdWdNbPDvroOD41bq+2V3NnRzkg7kbgSKi7wUnYGUOsOHmNMXwxl7pEvblAl0A9mthw4ARGd4bKfTZneqn27hWAMFgTXCvWE4w8ALFpX32xJvnyBxAEPz4sCLWlUnej3VDp9fR8GAWgEdw3Orikg0Uou7BT5FrhrTYAPkCpKeD5FkPudl0LcDlkMCQeqBraREqagsutVXAfafUKHgojbW2EkBzkACO4YvjkLpEWWxpQVDhB/LiCm6ssd7ngqZBzlyjQ+OBBwiA+4P8C/0dCLumyq5Lfc4s+x2v2v8pzQY3OjujRVB5sEyQpRtvV77NEvRwWJ9lm81AP8niI6IUq615G2NneRBztwM587PnvxGMiz1NXXkkGXUCbD9ujX6hP0g8VfKeJzhFz+I53rU82NHjdZ+Gyq12DTY2Z4PxwRPdg6M8lvyOTn13gzail5++LFQ+yK1H7lnVn/YLx0+RqiuQ4mbsc4IFyWCpGk6Xk5GjBGmtuwboScHPnhoUeOFksv9LCNFt8WxnKzeL3GWfCK6ObDGxwSpZ1xI2QfOsIYyfFEzKthfyNhe5VyeuMSYr4JVJ8MCox8uljX8COrp1AB/MT8JZJeYrzu2haBjZhspe8oSpXrcJsh53bn2VtxpA4ibIRVTOgjvO+MAZffGIylK0qGzSoeN8myiYpLhZuOrA1QwO3cKSyhnZLCeWvBVEDlCaaTyabpaBfUj63p9YQUh56O/jImK76vfrqbH72UpQ7NahIae6jBLPaBxT4LIvZ2QBlWro1jXgwd/zCrn06XNQEgpEq+CjMWsr2RQx9KlptQwYrk2yg9+X5sS4zkk8jUMFx2iwZ27UZJUisva3RYfwtUXGjb09/FnE22I9f9rWMcXuD1HSRU1fi+7+pja6+GQaqvZT1Act71XvBlRETYsHSo5cqbrrNESxUNvrP6P6ZAQpvQfOc9IPJjx8pccmYYCjP9d3pF/EScVW5rtyHSXaL2NEZOPg+kI+rVc6MJvFA+2Zw4gwCDR5UnKI+GPRQsyryoHPYkduj4Pr8cMd0+wVizUar1h2367hGRlieEcfHu5RahgaguqT+pLqULeLV8OSyFE6T6yTjWWimYt/1iIg9LdZefHlUuVPr7CKXQM1+aOjwFpoD0grpWlmoOC2RhUtj8P/zPd6Sw4ny66O0InQ71RSvzFMnSs/ieXxpWzw7nOhMFikBYbzsarw00XAxzvXMT2qUyc/l/jA3lv7pR3JWO3finBZwy1h7FW9rz2t3I77xL/N0RSLUWnkISX620SKqNuo9glCXVe0WATcCFf76y41xEyeSsOs4Lhie2ly95f84C6pbkS/v3IZRO8lHFql22nW412izTWAk8nPnQTz5O/wmgMtRy0rdWjHsjAtBv9GY2w8liyUAr/UXEbHmmWcjFOdHCvQIOKJSEXOD3gy00zZdSsxOenX8udKEi443HSxD18VzRqanhAzcKNGUd9YnT8PDG+s16AfC8hQGichYUidJrXzLj7yPHnw81oBJqj7AI2MbSsr81WnHBpiJBC2j/Zi2Gq8FM0NVS+MPKCElRyrdB6iSOOhYJmF3blNo/aPOviU8aNDyoEHRID7g/4J/hgf6ftiNbJoTpAEWbXL6TlyE/d0+EFjc5ctj9DLQ4Hs4iqQ1XA4RGriTjGHbfKp8TL4q6aRGMz3GbLFu35hmHAfa0Rryio47ywRDN44GnD/BChUSrAmJ4S75el1S8Vc0EIMDYQcAyK7Ltmzg9BKcJ48spQS/NXsv+u6qVqZf7p1b81fxY/GnCEMAv9P4rbJ3TiASi5kl8Oatz0btqUs0wpA5L+KnCW00vwqyDTxTq1maaab0Ix6VcEW7FMXBD3K/HpAktRDR1BB982YbNlrdVb4OFB3fOuI3UQoGe+PJFn7GuBVzxADR8nXFNrX0aDPx0Ocr9Nqjo3dnWllhktpQTklt8shun4/RPVYJBxT9k4CZr7qbkEBcl0DOggYxrzoACNaJ3fCFLvDH52TnuqOotOE2ABbcbvtUxwT/TmDBwG2sDsjazL8WU8vrjnze4kasJLe2B+kJjJP0g3kcmLXepjcZWKQaLY58BKpvs8fskZw2Mg2TqBmNGeo94cntgCANOOPL0lTrhCur8VpY+6d5nIego2f69IGCB4I0TgIYwA+inLbc3hPFjx/Cu91zPq6KOSpv9vNDx89Uc4fu+k6/dtyWuo0269e7m85lxtVZONIKOJMfgl/wEp1QYAGKLtgIhJ8kuD8pZEC449an3S2XAtA6dmf2LxCvVtyxiniG26aZk14odnyP09XxSRCB5YS2pwwobJMxiR7X90zvn3OzUWepYdVGi9r4c9wzaPysR+rc1bAzOhKx51DSzTFDMf1/tM0hXp1Yaq/bkJMqUHC8EEINgRsEuE0H7iJDDv68sZenmIa/XdyaL115PC8YWO7EvlOafRFHYc8EgfQLH00HzJXsxAMTMCeqg6qL63H0taS2E5RtoAsEQ1NmFE22H53uy6mU7r90kQKRIstxAZfRnqIdFTg0JVirAucuDdjAfKUFMWvE0LZyyKJP6Plz8Qjnt8DQpijr7XY68btgcuEn1C5nrI896uiqSIROVk2JQYXj5+3E45jYvAvhLyy2+PNXJk9vltj94f7WEMG9hqhEsjHeacafJDDXjpXkgfy+cka0aaMI/jamDYAEQvLLAvAtaKU3OQB2MwsRbzKHxsxvFFgUA6cra6tQLiIDxvtWMfBfDX4jTgh5f2LtrQbHR9BR6bVSx+JI1ySLMW+3LZpKhSGhi5F6ZSX1UOpsG5aJ2HRaAfcdpUiJmXrJjTJJv8XYDwDjAaLUQ2+nrMb3S6xdbTWYzBJqlRZB6mWS5+7Xr/UnL4Cwfxb6AB0PpnMUEIubpijQ3GBB4CA+4P8DfwJBhoFoaGkaUk3Z4aQ+kWuNZx9S4CswaUiWSgD/tzmA6/9qmaRXQv6kJG/NqS7wgvaRm5B8LgMvsKAHs+iaiHo7eAIsZ8fStXf8i7ufjynelSSpfp3voAh9Bjjyo2oW1EjFLhs7FgrYgxoxLaPtk8jziPqpvbtRgT8NPou/SDVYMkRyGXd5kCgUa5H7m4eSYSkIL3i3OjMgKYN7wCMBwhb88msuQLHE/EMGvSzWvcZRkRDrgB8arhibXIjei56jtrsPpmdvxOleAZ/8mX8z11XlSqKBLy5SMhUw2az1KI57wIqDQ6FXJkI39TaErp3CbZ8eXQYNvHMul2lxv+LbCxAYw69efZung5kG81aW3KFAH1FJkDVp/viPixWoMz35zfpoGKdk1JkeBXzAcBX9dBfMBwKRKgKDwkxl0CVwSgGAP15LXCYTt+2gntITZhPbsV4mRodXnJLDAYPRDv8O7iQ//DqNunizoK0sNBmGg/GBHT5SSyV33219VEQJZG8bnfpLAAd7+KJqYYfXpFe9Ns7RC/Vog5g4sHY4/PIptwvdlFt/UOR944/wAjJaFTigXuL7pQl2ajqOlCUnbHYUzB3DPq6nl1Vk94ZCySRgUT7KXP3f2MqWgYGCSngLuPEzm1lJNPLn0A/9IykYOzfCYA2J/TA7MC2JS5SbWR8hjuhBOmI0+XSzn2ZlHBQX+hGLjZk5zIJEHEtCvX0a8FKQKwbegAhpBXNeZ2BhMYQrU7ee4gnIyWq0kOxhXRr1W8HKj1uwV2TV+Yeylm/ShPxApjXxz4tTzyvD6/StYtp5cBXjOhgxsFT1tp3f8jN/HO5XXUS2RLoPqNhea6NYec1leoZT14XEbnPkraQjv0KQSVaF3eMFQ94mb+OGTAZ9u1yBuF1jPEX9LHSzC7mc6p1GyJo3F1vDazkqRFj8PF2gXryG1xd2e/ZM6DmQ7aJjio7NFlPum+CkD7xcCsq7M/wKCEYBwROQ5f1kmAjOmU8oqPC8QGDl27+eApcjSgTWGfSP1x0ccngtnX5wK7judVJaU0/PGG1j9hCg/uolqlmLwTuHWKBYJxjsklOlAbFiFILNq9bZrdb+kvgqDCc9z11LZSlW8ZZQkCt9lkVyI5m+cIYOVC1Wkly/y/IeXOaEDgM4zGoqh5mE2TIhKNDWoEHu4D7g/4F/AdB8aEhoLC9OiZs8vlb9u0N39KfuKuy5Ees2lFWxeG8bf0+8pjk1MgChkoePOFU3YW4wjt3cdyby6WC9cjGx2fmmHfnhG0g+6ZdwCoYheKtxXbCkPq5/7zjY0jVhuTDApRbWq2TZnDWHqiRluETvEEuowaulLcHq9yQMJ07XTSJeVZPDA2a8P0v8UC+iALpalCI2M01d/rDKZN1X0zh/J4chImPVolBaZxeORCQ2bbRjP0fvsj5dOkY+lsQmwtCzn3RHipoucFYHbXbKzh6GHGZgRTpES19+rB+3ax12P48uJnGRyxWSEnca6bMSeaLHOVDHT37Xs/W5iz1XEemDZ2fcAlsVkgaMnfF28UJ0yLk075UPHFxALs/OTpxqJTdrfT3LhEqgy0IHxwKqBIR4P3i8hL3NnI91AXGs+RRypookVMgU4anB19YeYP4Qzc/VXFBSoQiasLM+fWkHduSXEYu28HKnBXRq0Abt8IIce3QS45RyBxh7D/KxYkQofH5Fs0tFeFlSo1RByhQw5tnNOTHZNFtj5xpbrzadsnVUPGKWsYwTWkXdr3OYdMX+qkcOqAoAMMAigSSutIaAnK/IBNeenIyT7vyUTSih8Qio/mTy0qmoWPximWFFHe4w/ecyYNt8Wxs3xhcEi28TKWtmwEV0fDsMUUrWxxnP0iCA2IDZp9gP2OBLtiZIq7/BlIdITtD/ptUonvJ90bM7ygNuwJMKU4pu1TMEY+a3hvStuWbIqXbmoMhfWlQ0djsECDmPP+SF3/z6RXTvcjntnSNvYr/xF6JwTw7VSlDvolnsKBm3nYvWcokfYltIsLfe/uzU17wP8ykWEpgCUOuNuP9PS3AnBGIm1Vejc/FFjFI/1E4P1DMuMhTLVIkDss5VFW/e77gmtIwk6BfICVO5zITkpRKkBCsL6pTdqGqDP+tjBDzQf/8T8Qh1zcbMYN/iWWnPPW7e3Iq2l7AVJFq/N+Ol6i3POFp8zXP6PlWaAk/LDKPEYNwwJXGLhg3IGA7wjS/fXkcCV+NBUm0A5hZcIpCNde+FO17DGK9Phlii5lIVABdY1O44B6r2T38kwAx8mtqLs7hpjQqAXxczeeV14wj5X5taUu7T7L5S56VeYs2bSrIYKNEL4EH+ID7g/42/wpwlVztaqTCh6zqfME0r6HRBXETNlFbwnesg7AzGArQodvtwPko6Tufz+wPco/Fuxbk0g+uhOzyjiuWukzZY2eiXKwOEazmfErnHVPFX9PulVZAUvYBzNPx63Xwancjakgn+s1+kBWNhvISUAtXf8C7hjUmyEUD4fISAz8jwPeRihP77UnfyR6Z9VRT/NBMZhdcmyB927EFLhGEME//88D+U0Fcn1cRjdIiyeeS4idXGjmktvhgdk+HUd11IbrtEWdp+kMl6EkPYgocYDNKoo/owYtZ6l6Oowd60K9vmnvDzr9mo08zW5P7hd1JHaYbURaZjZ5HXWgWOZJnmJoq8Cs1OWPE25RmxHQg9L0FmOVFZBGAEiGLjSGmWZi6QdIq/7qR/zYeQmADzHw1tct/DXy2gS9B/AGyCvgdVF+LMBsR+ScFpXxPnuDO1Q4z4+R3851A7qkpUUJA00VlYpmgGRp7Xcr2ie/E0Aj36DXzbLcyQMbXZxUXDdBWj0U5roJd5LgphSwpUDLhL00WdgGtkHPKXT+nKFaOfZYcFZjpkWDxYxNMCkJkUo8+LXQabPRutwJNbbZ+cvHZYkLfIFC8Nst1zbK7557nKXmhjLuSqT0aGCU7rBWv/juKkYNbmShWT0ZDiVL2lVjn8xUJGdVBSGAVQAL/W9hj6aHExo4Vf4jK2WAUq5KsNaB7LC0UDgixn7GKTylIiMwAY0/LO4JXYiB1oatwGr+CBCPoLpyFb/+0kcUvgnTw9QZxn69qZ5IgZJGZjWE5N/8eNZm2f1geYuWbrjwpR5NPCKgiOfDmrgTOW4vlll7g8o0q97sCvNu+4fNS3OxZxdftKsBjxtiZdQyeSK+zScSNx5Tl+m0oqzY5fcxV4gqor3m4Ke5i/rh7Fo322HLJEDj5I4tchTRtQ7TbZPTlUnWq/Ah426laJly4+X7ZiJr3plHN7vVpEmBcKnYXo6iEtt+iE4sA7/I6AAOSmwGiMnpGOpW8Anm+0JjyXBaxA0wtm7wT7yKbOAhCxrOjdWIIv9pDcDvHXo97ktriFBo405UByBzxATvKyUwChip+ME16CxDh4Ud00mB6iwgBiKAB1PJL+p72YLLELY3KILltoNP7r9lwL0P2nzlVtuX+WxI77IU/F0KcmN3lixntFRkOeMivTc+62wj2lbOgtzZStPcRsOfbAolJzjKh/infJgjJebmtPNgzQbKPEcOYJhK+nTPR+01nbUb1MEIA1KB/4LRm2feO27YndM6KRXbSqjT3pa4n5kNnpQTU2NQ3GRjEiPPkmZkTAXEckFPqCeLAidYy5Q/eTZ9VeBkYxXXRx1B4dZaFs5rZ+uOHrqN1kJI5YHw7KjvHltZdnOkd4wpmWvoI9eH2qYBxyp2bSAnRp8DhGKeleBdNrRLEtl3fuhaex6NDf4EINID7g/8L/Qo+1Zq5ML7v6nOyBowBWeVTnQexIGuOGXReFN7RydS3OyLTodxyrDXcq5eAhQU8NRFQV5iapcjlCWLPKotL/L4qvd1Wgj+lH/KdnURZmIHMCT5dPYWcXRdYfaJFh39GfydHg9qC1GR9W3G7TzzLWVMpL5sEdmNaNMWEZ+6Kc5TZ8rvgTamRAbGcfXPpKzFNAAZRz/4s9TVWerxUp+h5iTj0sVFaBJunp/VIE40BBiOHOl/nQSbb86NFnwt+SeZ6hawl1XB0pKuC2Z03HrQ4G+E/xq9tYI/xE5Jhe/QwdjywIY1jA/gVQMoCyar9cLyBQ+onBa/fBWItDCaHpCdO1gyv9s8cesbIdVId5I3Ps8HYvq0OPTELHvg2iBfVK+29DmvRvSDbdQWIygRB/hSCB0JA5jrGed34j54M5yxRLmwc7zIwFsoUcFhVoU9T7ilqYV1PGPRMPq+EN5VQj/IvRCn6xpamlbz2WKsNCbJkffCA2U++L7oUIaEgC0xgD4eg3CBbo252g/W/ynKL6Z/83hw/x2T0HjVsF9J/Fl8WA095Lpv/yWygFxN+fdWEk/w5IczRQA6br2elTEclj+xbUdXBAMP7Tbfw3LDRPMixc+Yd4fki0nqQIXbU4CAr6+6X5bXzY12jdm1daVU95defWXqxBv7iglkGQ3a3nW6PzS1OzFGzks1rJ1Ucrd5xgEFL/sqsvtby9oZp4E8rYADeQAyxgoRkZUQC84OS3eVLTRxkKuRDCzOln+Zfsk9+FUoZF70Y45eaCdosJBmU5VKRcK7CE5L05nybvoNQIGkr36MzoXCJ4TrOQSCUi4iWPhY/pHH9P/OzoXaiuNYeyvt9bYcNCyxojHqrTwK3bmKY/xHe2Dr5HjkmMU7h05s8A5SfbXX5F8kLgvmHBfoIuQRekOzMZwQ+Q17jwT4uEbAWSC/wmJIueWLlXKI/vei3e5Sm6MnGTpGiWpAZnCgZDriwQzJrAcSh/8lNmll8Hj5CFb2lSoTEGb1b2pWzBNR3ZdywhhM0n51M2jPmmO38kJFpp1+x1977diKmRu7F0026xBUtp0V2x1Zj/mfsK3dnLNk5pK6IlzzXBkrA7H5evxO5cy+I6JlxpoqHfvllTYqxqPjL3oaHFr7HgJ2wrDufRUT4Fm1z9hj/E3rtEjdjzYfUAgLlIoucTAKjQ4SBCHCA+4P/C/4KPSvl36vg59kSWU1GtmZT8Un/kiRG5yn83anxCA/VrbplwTirernYYs8hAoqJJrD5d8gd8crvrDKm0VluYKlkcMdXZRdkKLrMrJvEkzS1dHloJMAOGJyD1fWEL97UBzTiVcrFGgn2i2KAFEEnjMt7I6KgtKbkpLlVoefD4TuhsHNe6N1LtXXcV91LHzNAqCuxALCillWUSjWs1plDpJWLZ5xDeGEA2KQ3j3mIR9jBfu/eKsybSBtnGvRb7QOo0IVafi3t6AmsEDvqk+I+bXjohogZewZPISM3RsJexxlX3eWcfWOk+WN+9KZxYV3XPzvwtX0sRJv8NrKcmI5HS0o/DkRw6Rd1gPs9bPjmnSCY7PIPJaBYZIpd7zwUVmAs7VCqu1Nv6AI8cN97CndCW2p7ifvU9CZjhjoSFAy5jh7BoRBDXctjykiQnlloWWlbL8UoIvFcN8WZWEsgM9rfI4QMvbJBKtgh5X9JtdKi6mvwVSp6fC4zLiZju925SoOJwR+2vuLGkxnqO/Pgbf2V0Z268IMaGLi96yHack51NcTkS5xrFkji8lwBXlEhIF778J3kvTcTQKVWZOqegzZ11yJJ7hygCfx44hv/U+dBT63kh91J2y3lz8D/doirkmbzjRk2NYYMu4H5IlaC7AjreDjkhIT6R8XlOaM/mzqZSgy6GKeGJDg3zF04DmGaPTFu3DRvi22eIEMKfxDAd5WDAtC4/BwmkDqhXBQlVyz5s2oRh10HZKjQXlUsTljwiPoZv1VimLgK6vwsqJY1ASYFscI+fo07dRWkEDVrD/+wXZrNyi4RDVxo3mo91+muUnpjsKHzWSKYCgu4fU3Txy6Gt2aXpWCqlqlIu7I76dnsuM2UCEnOoQX5A2kMN0D5Zuw8zVH4Vl0PT85rOkm6EuYnXRUy9syWOj2GIpq0OXRVGJAFy1Df56MKAdGl2qi//ZKoffVgQVS/oi7G/paxmCKSmS2NPzgChC6kBHCc3Zul/olqEwz+RDWKjL/kv99eDaRDAoVk2nVejx712nC5iGrah1ySxIsfwEu+m4MXJ+FdEsi3u2E8H/Y1ncjEmh0FT6PLxOJH1BVOskYxdAdjd1GGJ0NGj0wvFKo8xWpjoNHE8ZvxJYkkg2Mt54BoYnrZdEGd16RxjUC/3u/WKYvTFhUP4kCWvKUF0Z0egzbi5m6jQ4KBCKyA+4P+Cv4LEjkKm9ouWsTmGrR+9T7geXOlJ9dvYkKBgifQfZBr1mE422GDoFcKmzGkSRgC+qZMdmRu3F8BtN8JEtgQW5FgwSMDqfTiQ4tQ8dvlFFA22ElCYDzLQlRq8F6zmMsSKHTp0XHIAlZiMxwfjie2n7te0ZiP/FbyurmoczUr314JTwvW2uWRqXU57lDG1zbEqUyqDpZqHx4WJ6F58ZZYIhuGq5eKqiDV6TEkrK5oP5Zrs54Xbrk2XPOSHTp4hJR63ZOjFpzVHuaHlCJ0dZxyiDTdLdyKkcoiHvoj5oZxPUOX6jdqx0ygU7QWuodalDhLN2W5SZMXgNR/Z7I4r+TwBH8cRDfjAlPJG3ZDUmykcsWvsRTHvSjhv0gdXvsQKjjiwpvhINabNipEr9iWyExitX8LnAb75TKOJppArnbZ9YbYXaTaUb/UYtLWnK5Y0OUY3p5ywkkpSmPd3enRKYEE1XxwjyDzfZm2tp0DwxnkMY2ZrJuEIlc7bm757ngJAUmYeMY+qChvK6Zt6XZ4qI3vX45+X+zVqHKgiS1pyV7NxUAa/cHK+5bIgJiGNBOg0DMAqgv48VYOaE7eBqbwnptcotCJ3McCjrmSkxT+NdfhSv7EMMFIZjp7M50s4i6yozYTu89ikya/mHxLqWp0fOeA6mxNlUc8vnv+wxXXEWElwFad9R5ckoFPsMIMfzKTgaYS1jbiZ8VaUN3+va8M9vmi52OzL6+TjO0XKR+2/KR742B4jviI6z3uKIPS60/4wUVomLbksjk6Z2W7acRTerR7Ulr+QTyJGaqAyLBTYAXb2qwkU8p/HWm3MKoddqoj5sO8JaBXP+kk+cVelUbEv3Immlu2PyjtlX3thruRVuJUh01dCZpqk0rV3OZX8s6YuxJFroPgEMTVDxPSrNOBCTrX75wiuhSr0MDd9w8XtAHM+UytV5KQZbyD2moOZKpxUN01jjomV9y1heLIfO8NCJOXsS0KxbiS1RZmrdshik1Z3laRqLOwoLtsyGhwOdO6dYfcRczEq+mqL0RATDKczorLiL4ETJPHVEunoYbS5k1MdwUph/HY5zKPrx3xkFnajzcmA0ZmA49A6BFHuG+Lgbv1ppPcOQQOpOdGj66d755IYm3tz3IgPCsvf5HRpU9MMQ3XuDhtQFU66D9vezWN/VAJKLu5BWARYSWckqDto0PHgQjogPuD/RD8EUGIy3q25X5HQzha188HFSj91krXA7EZ3+26gCIz5qw+JXf2nPzx+Mp9KZ1+AlVOM/DXt9P7FxAtbD3XTNjYgcc4BeEAk1RSvMahN0pMg9R2wpXr7OkVEu0+u4gTw9jNiWoyRnxXRbCtEpnBw3INzE3WxC9g7l60H29icY/L5kaBYgT2frBxbFMUtYI3vJX3F9onFesKiNq8/9lAPkYiz0UbmeZpKGQ/kDWSu8NrOe3GigX7DtRBv7BhPIYwvqbaIuk5xoXVSuC1T4ucJ8+G9kvr/s+sKzq45NOlukv4ZHfyeFf8+nlH2UMyTIb3ZYO1hghHeZJcHqI50rLbgSkNO881Xmp8zIMPiMJZj6ztLWrN0qBPBzUWs6Cvms6PTnI2f/P2GI5cPkNKUSjBu2dzBhg3E0GgFQtB4pBQ28JHPdTI+AlNjxo1ABDqkMiteLAV56EpReJQtwhbhPxMB7B7ii75pPU4C4jPS7Cgg1oV+veKajyVwdaOSzjZQNaDLxj1M6y5msSq+lfYtObG5Y/U9eyURjymZ1srEy4DgNVxlW6reTKwH2kpLdDtw6pCzD45G1spxMXGEKs7RxOy6lPpDT82SwRS/DeUGeW7US9fVaz10lhamzWxDEK/jG0EyjwYLY7CUXm/vByeclO4VIfBi2kVzTpyZEgCA/lX8EGwKAlHd8IJaqHLsUqyq24b4HQtl4mJjWQXk7x0OcU7A3CGiRbY3o5bNO5rs8wYD0FihN34k18VWCnGcxx51Yu47mqCFotFCIZbFi4uqXmP5Tm1z6bq7ULH3Bi28EIf31sHbZVP1u3wziEaw13yKDZ9VzEamVMyIHc1Tp4xvIy0Kn8Q6nx68Ig0iGFCrekhINS30Qjm6MOrxcDzR4CsfVy1PTfd+y/o51BC0OiP+3eKaclq4TOG9htcYa6irEPurhHC5pF9QcA6wooxymUoZv8jtAGJI3FEEqg85sTKykSagjb2tw10RL7+gME5+iUAyW/RQO6QHlb/rDA3gnJyxp+FnQokc4EIMS4mbKtcT9+iD32t3Ah4EVrFYjKYDm914h8dsTHEiESrGHGkHr1O9VTcwektjCLFv0CqRVAxwNWLvCwIvxddXDFYtXF0/w2G7qH5CHLCxJtKx4CKIM4pPKILkBHktLYZx7x9iTh0c/Pq+cvPLFq3p3DDQBvdv3VIXSe+uawqeaB9IVbmGV43C20sjYMmEWWinBlbNVTs70yaFubvw+aFdcsiw5Vr4dL5bwxb4YfcFIPn57k152pIXENTWqNDxoEJJID7Axwdqt3ttb0iIvpWHjagclZtHQV/lzM7ujpBQ7ZKFoDiiOPoBGgbqkPw3egEvHY6K8/fd5FBCjn0VW4GKJogZ5SF8HhPkWbMdrI5ToBEFfb5cCjX9CbNtgFHHVDrDzzGbFVi1oJIAnH7oYZtFzvPTBy/gTMfUWvqIGgQX2Rs0UzhRba8hlzoTA9sGfZuO6/mWTjggsMFblr1HxjKStXFj9lD4jvpJygga38KDBd0U462npOPB1mdCzz08498/sa877dc3dUXAUvVMMFZz8Nn52EPY0BvQAY5kRkVdJmFXsE3S4Q9Je27iFNbT1Ss7dBJgMe3fC3GBneA+zeIqf5yndXgE9TP4H8ULuqLl+ESWG+HU7u/mSVaBnLXDvUtzlzDXtagd+lUaFywwPIL4VbqDrHPNByQpvGU5yqbGp4phH9yQg1A8Z22xzgLk6bK08hJZHeAiVy/0IogOoMY/EPvAtPj63w/QVfcerWDyQ6ZzVUJR1Ye3AI0M3RG6N+c1LWN+Mie2qPmIr4Tnp5J54SJ0LWjPHnBMa2VM2poup1B7lvUrQJXoVSfoUk4Crvy+Dejv9tkB/23XZDFOb3ptf9wHaKiqHKXiyFr6mtpV5095dBp1fEp9D+z3t11/l2ZOt3QJ1rGexo2tJ+ANoytkODd7pZOcB2FUo2/UYRRQDn6O0pf2zLJjdv66g7m05sGIFl9Nsi/Scqq25Yw/aLZaxaYk26beuUQOKuMZ2FK36JTlpBMO1AnwpyY46WEgT4nhKlf+AMStM91NLkPpA5FTVtGeGWRDJQy3R+F5cOLxRNufitiVSG8pScNsKAxL6Zg7MGUXTcODfYA/zuVSV09rcZdWgw+oRSA/mx+O+w400Brh8QgO1v7wVh0xgIBmqZOeAGb6Lkr4jaEz36uvZVGHlLMK7DLwWpQbpqplVH7HLgybht8MHh2QKXD8uE/3beP6S9ssg3YcbPvML6oqa4dgKQ13d3xSDBb5VGIZXnJfO/CgmxU5RdSzJs5qNWr04vDJbrjqM7P1WmYmivFcbjcr4nIhwEFhUzhlZ9Xte+R/9p645pqDeW9t2+Etddihmp9v5FmCwvdrqC0k4PONRbYY19KOHwFBhY1aLiu8TAykh3cV65X57P5RI8qtmfAH6NBYFyTi6rRVpGDpRWO8O2etYRfNA56ML2nc0u5oqingTZkOoZ4JygBO1ZcSFGaNYQ5fVKilfeD4ABoGRpJbj5KZ8cE2FtfDb9963p42RDk7oPbYDKbWw3fCdb8tYBrHmc7cFoMfg==","4"
"","","","","","instructions","15","44707","0.0-7.0","z707wtd8mkkgkdp","65b6eb2fc356a","3747","","[{""page_index"":0,""viewing_time"":3746}]","","",""
"","","","","","image-button-response","16","46519","0.0-8.0","z707wtd8mkkgkdp","65b6eb2fc356a","null","","","[]","null",""
"","","","","","image-button-response","17","51748","0.0-9.0-0.0","z707wtd8mkkgkdp","65b6eb2fc356a","null","","","images/list_2/timeline_2/1_Muhammad_Ali.png","null",""
"","","","","","image-button-response","18","54752","0.0-9.0-1.0","z707wtd8mkkgkdp","65b6eb2fc356a","null","","","images/list_2/timeline_2/1_Muhammad_Ali.png","null",""
"","","","","","image-button-response","19","56752","0.0-9.0-2.0","z707wtd8mkkgkdp","65b6eb2fc356a","null","","","[]","null",""
"","","","","","image-button-response","20","61750","0.0-9.0-0.1","z707wtd8mkkgkdp","65b6eb2fc356a","null","","","images/list_2/timeline_2/2_Paul_Simon.png","null",""
"","","","","","image-button-response","21","64453","0.0-9.0-1.1","z707wtd8mkkgkdp","65b6eb2fc356a","null","","","images/list_2/timeline_2/2_Paul_Simon.png","null",""
"","","","","","image-button-response","22","66265","0.0-9.0-2.1","z707wtd8mkkgkdp","65b6eb2fc356a","null","","","[]","null",""
"","","","","","image-button-response","23","70767","0.0-9.0-0.2","z707wtd8mkkgkdp","65b6eb2fc356a","null","","","images/list_2/timeline_2/3_Dolly_Parton.png","null",""
"","","","","","image-button-response","24","72437","0.0-9.0-1.2","z707wtd8mkkgkdp","65b6eb2fc356a","1667","","","images/list_2/timeline_2/3_Dolly_Parton.png","1",""
"","","","","","image-button-response","25","74252","0.0-9.0-2.2","z707wtd8mkkgkdp","65b6eb2fc356a","null","","","[]","null",""
"","","","","","image-button-response","26","79749","0.0-9.0-0.3","z707wtd8mkkgkdp","65b6eb2fc356a","null","","","images/list_2/timeline_2/4_Robin_Williams.png","null",""
"","","","","","image-button-response","27","82749","0.0-9.0-1.3","z707wtd8mkkgkdp","65b6eb2fc356a","null","","","images/list_2/timeline_2/4_Robin_Williams.png","null",""
"","","","","","image-button-response","28","84746","0.0-9.0-2.3","z707wtd8mkkgkdp","65b6eb2fc356a","null","","","[]","null",""
"","","","","","image-button-response","29","89750","0.0-9.0-0.4","z707wtd8mkkgkdp","65b6eb2fc356a","null","","","images/list_2/timeline_2/5_Eddie_Murphy.png","null",""
"","","","","","image-button-response","30","92747","0.0-9.0-1.4","z707wtd8mkkgkdp","65b6eb2fc356a","null","","","images/list_2/timeline_2/5_Eddie_Murphy.png","null",""
"","","","","","image-button-response","31","94747","0.0-9.0-2.4","z707wtd8mkkgkdp","65b6eb2fc356a","null","","","[]","null",""
"","","","","","image-button-response","32","99750","0.0-9.0-0.5","z707wtd8mkkgkdp","65b6eb2fc356a","null","","","images/list_2/timeline_2/6_Halle_Berry.png","null",""
"","","","","","image-button-response","33","102750","0.0-9.0-1.5","z707wtd8mkkgkdp","65b6eb2fc356a","null","","","images/list_2/timeline_2/6_Halle_Berry.png","null",""
"","","","","","image-button-response","34","104567","0.0-9.0-2.5","z707wtd8mkkgkdp","65b6eb2fc356a","null","","","[]","null",""
"","","","","","image-button-response","35","109750","0.0-9.0-0.6","z707wtd8mkkgkdp","65b6eb2fc356a","null","","","images/list_2/timeline_2/7_Amy_Poehler.png","null",""
"","","","","","image-button-response","36","112755","0.0-9.0-1.6","z707wtd8mkkgkdp","65b6eb2fc356a","null","","","images/list_2/timeline_2/7_Amy_Poehler.png","null",""
"","","","","","image-button-response","37","114756","0.0-9.0-2.6","z707wtd8mkkgkdp","65b6eb2fc356a","null","","","[]","null",""
"","","","","","image-button-response","38","119752","0.0-9.0-0.7","z707wtd8mkkgkdp","65b6eb2fc356a","null","","","images/list_2/timeline_2/8_Cillian_Murphy.png","null",""
"","","","","","image-button-response","39","122748","0.0-9.0-1.7","z707wtd8mkkgkdp","65b6eb2fc356a","null","","","images/list_2/timeline_2/8_Cillian_Murphy.png","null",""
"","","","","","image-button-response","40","124553","0.0-9.0-2.7","z707wtd8mkkgkdp","65b6eb2fc356a","null","","","[]","null",""
"","","","","","image-button-response","41","129062","0.0-9.0-0.8","z707wtd8mkkgkdp","65b6eb2fc356a","null","","","images/list_2/timeline_2/9_Jessica_Alba.png","null",""
"","","","","","image-button-response","42","131774","0.0-9.0-1.8","z707wtd8mkkgkdp","65b6eb2fc356a","null","","","images/list_2/timeline_2/9_Jessica_Alba.png","null",""
"","","","","","image-button-response","43","133591","0.0-9.0-2.8","z707wtd8mkkgkdp","65b6eb2fc356a","null","","","[]","null",""
"","","","","","image-button-response","44","138101","0.0-9.0-0.9","z707wtd8mkkgkdp","65b6eb2fc356a","null","","","images/list_2/timeline_2/10_Robert_Pattinson.png","null",""
"","","","","","image-button-response","45","140819","0.0-9.0-1.9","z707wtd8mkkgkdp","65b6eb2fc356a","null","","","images/list_2/timeline_2/10_Robert_Pattinson.png","null",""
"","","","","","image-button-response","46","142750","0.0-9.0-2.9","z707wtd8mkkgkdp","65b6eb2fc356a","null","","","[]","null",""
"","","","","","image-button-response","47","147261","0.0-9.0-0.10","z707wtd8mkkgkdp","65b6eb2fc356a","null","","","images/list_2/timeline_2/11_Emma_Robert.png","null",""
"","","","","","image-button-response","48","150750","0.0-9.0-1.10","z707wtd8mkkgkdp","65b6eb2fc356a","null","","","images/list_2/timeline_2/11_Emma_Robert.png","null",""
"","","","","","image-button-response","49","152751","0.0-9.0-2.10","z707wtd8mkkgkdp","65b6eb2fc356a","null","","","[]","null",""
"","","","","","image-button-response","50","157267","0.0-9.0-0.11","z707wtd8mkkgkdp","65b6eb2fc356a","null","","","images/list_2/timeline_2/12_Billie_Eilish.png","null",""
"","","","","","image-button-response","51","159970","0.0-9.0-1.11","z707wtd8mkkgkdp","65b6eb2fc356a","null","","","images/list_2/timeline_2/12_Billie_Eilish.png","null",""
"","","","","","image-button-response","52","161786","0.0-9.0-2.11","z707wtd8mkkgkdp","65b6eb2fc356a","null","","","[]","null",""
"","","","","","html-audio-response","53","167941","0.0-10.0","z707wtd8mkkgkdp","65b6eb2fc356a","3638","","","<span style=""color: red; font-size: 24px""> NOW RECORDING </span>
