"success","timeout","failed_images","failed_audio","failed_video","trial_type","trial_index","time_elapsed","internal_node_id","subject","condition","rt","device_id","stimulus","response","estimated_stimulus_onset","audio_url"
"true","false","[]","[]","[]","preload","0","49","0.0-0.0","xc97rju1m585y5b","conditionB","","","","","",""
"true","","","","","fullscreen","1","2524","0.0-1.0","xc97rju1m585y5b","conditionB","1473","","","","",""
"","","","","","initialize-microphone","2","3585","0.0-2.0","xc97rju1m585y5b","conditionB","","a245aeecc0339b94ca3b74e02bb1150e9e1aee21df4e57afe28caa91d36d71b3","","","",""
"","","","","","image-button-response","3","5396","0.0-3.0","xc97rju1m585y5b","conditionB","null","","[]","null","",""
"","","","","","image-button-response","4","9906","0.0-4.0","xc97rju1m585y5b","conditionB","null","","[""images/celebrities/1.png""]","null","",""
"","","","","","image-button-response","5","10783","0.0-5.0","xc97rju1m585y5b","conditionB","876","","[]","2","",""
"","","","","","image-button-response","6","12589","0.0-6.0","xc97rju1m585y5b","conditionB","null","","[]","null","",""
"","","","","","image-button-response","7","14403","0.0-7.0","xc97rju1m585y5b","conditionB","null","","[]","null","",""
"","","","","","image-button-response","8","18911","0.0-8.0","xc97rju1m585y5b","conditionB","null","","[""images/celebrities/3.png""]","null","",""
"","","","","","image-button-response","9","19802","0.0-9.0","xc97rju1m585y5b","conditionB","889","","[]","2","",""
"","","","","","image-button-response","10","21607","0.0-10.0","xc97rju1m585y5b","conditionB","null","","[]","null","",""
"","","","","","image-button-response","11","23420","0.0-11.0","xc97rju1m585y5b","conditionB","null","","[]","null","",""
"","","","","","image-button-response","12","27922","0.0-12.0","xc97rju1m585y5b","conditionB","null","","[""images/celebrities/5.png""]","null","",""
"","","","","","image-button-response","13","29138","0.0-13.0","xc97rju1m585y5b","conditionB","1215","","[]","2","",""
"","","","","","image-button-response","14","30944","0.0-14.0","xc97rju1m585y5b","conditionB","null","","[]","null","",""
"","","","","","image-button-response","15","32759","0.0-15.0","xc97rju1m585y5b","conditionB","null","","[]","null","",""
"","","","","","image-button-response","16","37260","0.0-16.0","xc97rju1m585y5b","conditionB","null","","[""images/celebrities/7.png""]","null","",""
"","","","","","image-button-response","17","38115","0.0-17.0","xc97rju1m585y5b","conditionB","854","","[]","2","",""
"","","","","","image-button-response","18","39925","0.0-18.0","xc97rju1m585y5b","conditionB","null","","[]","null","",""
"","","","","","html-audio-response","19","49155","0.0-19.0","xc97rju1m585y5b","conditionB","1865","","
        <p>Please sing the first few seconds of a song and click the button when you are done.</p>","GkXfo59ChoEBQveBAULygQRC84EIQoKEd2VibUKHgQRChYECGFOAZwH/////////FUmpZpkq17GDD0JATYCGQ2hyb21lV0GGQ2hyb21lFlSua7+uvdeBAXPFh9zmcNO3ujKDgQKGhkFfT1BVU2Oik09wdXNIZWFkAQEAAIC7AAAAAADhjbWERzuAAJ+BAWJkgSAfQ7Z1Af/////////ngQCjRBiBAACA+4P8Mv0Kf+1zxm8lGmt+fo34yMU5XwVe0k9grFzeVmmWaGKMFmJ2RgCCiNIRtqe3QYBcbF1mYwMmtQVcrQpJ4HzqNDM8W9dFv1SNxas0rME+p2OiwSsz9Y8wmKB4rSYmUAnFGqhWT2FuW9oJfp2+mnSkq6WPXppO66WqWY/3I72UK0Wk9OfD0IFQdl9e/M4xD0Yg/8PXibEQ31n/TBIPjns5nkSdpClOuMe3nHi8y43fIqH/Ss/5pnU5WEHnJkvWyZ2sUgauo8UAi8e3qmXrNK+zogAAAAAAAAALsTXLHDhmVT8MiYoQRmw5F5FSRRfcp7b8vnBqflaq+trTj7/JIlE3C4h52MrSdVc9T7W56LWLw5cPRCyL+YYEdXt7HFKQDfrCcskLFpFmMt6bngdd1EpfaQ8lR7WMZ0gy8ESCToQmTpBT8EMfLLxQXLEef0UpfTMzPb1DkwpC5wToHzdNaWo8zhsOdf+ReLapRKqlwSOwCuZBn6ic9I4k0djeJeiczSOYn3EALqsEEAbp2oDIQoufmBgrZMpMJ1tvLNu2LdaUAGp+UcV4DEb1xgIZr6vIFSeCHT41e1LO2YuedyVjZSerVvRy2iElD4VgbZaIP9iQ5utTUxVGsufYqLqY8bHPXX4h6mnHYzZMGdSKA1RCLgL4EKREcUDp2ShgM5vn/ttm+OIh2t0gl9USXUDmxSCNPb7eoT9lVsHd0dEfmsHcmabFjptcSbNhauByTQVObqyzqP7YF0SeQhDUtnjFk1ftZqsGn1TwHJ42hzpmMvIbsqAQWlrlFVhBCLMzZgs6NYcMbYpVW99o+HmXHbEFQczVXfIruWd/ljJ9UIe85narZO4Uvoh0czJU80wwRZTKg+ggSR9dHBI6puMvAnvK8Z8XOOfh1YeoEKV7Bayje6rwmK4CShT77P9gmIo2l3QfQTMVD9/h+yoc2Pz83s/FpJqcxSdnmIIJog5OvSJBfLLBcCzcxbMjbSX1zqSNiqZMFGEO0KDpl5ptEgM9UIGtXybLW2p3FRJsaO+s8uf80hx0PpeqfM257PTy1TNJ0v3XYQYcbUPNHtIO3UyHZ0UlTcefK3ZSjREJjlb/ySjZvBfFK1Jz+6nEOOyY8c61CIU7zsp7ZVltf9Vo8PIEKRSx1UHHk5Fe0JyQjaZMO6i1O5xw0s16iCxhHuU0os1B0cIcpqWGye7/Cv22erJ3W3zacCJyLKRv4+CWy/0kf57q6FNDqZ7QCNbFjfI0JrTzRFCPo72OyQTdW1LBGQW4c/C1mykjXhSkf7CicjcEw6SaXDLJnBLPg59ds8tSywKkTJxmiDiFRm+FCpJoL5CsyQDUapR7JPYmQRlK7u4mqBET6IwviPyMRY6Ty/H/xaLuhXS72UCR2KCco0OBgQA7gPuD/gr/CmBGzftusIbqufaj+lpkr74ut/wOA317hyAPCMsj/6Pw8VoWxO+Wk4NFCEzGTAofMnekCP4RA46C/ovuSIaiC1Sz856YIbKjKSkTE7GOyaBgOLbJNOz4D5Qlijlmvjprk17dauUMEEq4F3v1XA4HQoelRASoyLnDO97u6KYRbnXx3z6d+9xh7yk083g+tFYIPUHtfU08OhCPrEXhBOL7gn9fB1h2HpDzlYt6HxV5F3lCsM31Ur7vGOYMQ9kwNB6USaBY7lvpdHb6CIAmR0hoLjquWjgBj7w8veXAlk3v2SLBk3adyStJBaXs0urorS8r8cadpr+k7AceOJyUlOy/NAyYLO0kpWtGBXRMhJDKqNhtR67G10rRWHrupaRPY9yoNkdq2ro8sGEgXuB9cB7AAj7a+RRhTBihRFwJVTcsRG/f4h98wI4avlfragHTLYEimT/oFOK1n+acHadSOMWaDmg0ywW47v8Xttvyrqa0wk1k4yiZ/akZWkOsIcol+t2lblteGSxzjMM7EsnjGEvNOg3SsjM7nclIFcyC/NYB/qeTOjsfyqKQcoYkKa+vlx/DQXy7z5kJg9amCzsPzWO0j7ABH1pG0bA4tH7kXBFjsmSQEG/Wt2q1T3+FfkBwX//EC8/Jk3H+0wQMhSc+D5Vzi0hF5OEjpAkNSRPLISeRoCz5U4ieObWJ7JAOMx8FO9WAGTd+MrvI1Qf+Dbeks2JcuHAyFiaq+371tQN1VqLQy4POPjnNhf6FENchOUMWEjv83D0sQi+UsPNMyG9OcGxhBe0mtsMCqPxrp4XSFdhMgyNmK1NfS6pkUCCRqG3FOQ2d5hrvmYyvKQ+bQrDNRi21z1RFTksIHV8UEpfRLmJ0Q1KLsDwbcx8K8tDGI5MmHCt+U6OwFIaOYtMTgz6TKadkDcLWXsjzSgHHlaxZtRUREiBQ6IetWNNT12UJoKlunkf0qQq2kvmLavkj+h8g4LzV5qsuD/3pFD2ooOFJ9lZ87EqeifoON8vjemqCT+KlQGcflYUT3K/RcEeNTWyTAgRK3JruadWTMLwjgbqq2KGwT+LNdbw8BP+89eIvaUZoTqBNaXQTaSOddrJ4edWNzshNxCiEXwfTdpM3oo6Tx50REIer2WATLyIxIcEotWFfP3r7XdDqjk6WlBY5hwZbIOQi/KRxJAGxG5plo0PFgQB3gPuD/w/8EWAtEBfDbLEDDO24olqw1HsPNwuTSjftdqXCaAfT7KKK7R3cPL2TTy1hOi+DfDXM5Iiw7JQDD+u23uulPMOuMhtBBL529b7/Az4Lat2yy6BXxYVMEiy5RTEW9HMtZs28u9WvOTEh+uT2Pvs3EKxPw2KbtYj6uZq/S9bok/zj4nkhlkN5d50rjJQyKkqR9fMr2ymhztnMQg8rJhb+UY87eES3+JKGBQ1lW0wSzj38lSKr3HcUPWZ2L9OkGleTrYxxY+cIMwKRN4BAw0t13mX7n6ha7U4sAJRUAh5bh32+4PubMQ3NwkjwGir1kcPXZFop/+K9h/mz2wyUVLj5psqFQ9CHliPj07BbzOmVo6FL9YqqZBw8mNtPM0HH38z20itpOZVbB+E/BKeMM8f8yptsh4+ATysK5PiWy7KF4mBqynT3PYFsR4fxFkoODcVyy1j+XOn8pWiSOP8lIxenW6gFNe6/2ky09MRIz09pZrAafHMS8a7F1E041I7M+eKM0EKVYmjjRKPydPHD6uPQMTmskB6PuKX8ETwJyAfzADa2UKNNv/C9gX4H7v4eTUzrB+ebpmwyludejvI0s2mjy0bOhR3+Ky5Cz8RjDn8pOiUw0VTCgLSJyLbzBffBZiHlwBp4zrSUi1zVAV3Rr8Eu3zelYK0R7+dhF74tE2/3JcA3qwu/73fC6S/0GSTltR7SL6MygLOoICRvGBG1bh4d5oiZnmpA/FdyD943B7ZUTuAp5o3D1WXqJIbhtqPRNYm0BnTiwsTc1fvGcoHf+BiOPreyuA5WnPpJG5fBnpTxfEXPw3bn3VR3s5LwD716W828KZj1OH+YGxyB/K1t9OJaYRutXds6afI4lId+Py3ytxAbaKvkf77equ1tNabLzMBVFGRyNGKf0+78rLW7GGXjKIcfqs7v3fDWfojCniIG9oh4kickT3gK2/rmLyftKV5IGQCY9U9W3D3GioDqrp3OSobtrMKD1m2YjS3aRSy2sTsFD6kR6shWX7fTntYksjDbgYLLlkKxzrFK2X3Ph9Ne+zKOm6OHKyqEa2d/IYPMaDy7H8mYYf//jMMWRyQGafpBOP3whGnwEJ09quXHaIn+Vq6vCx+sC9DM0gOBLDlPH/ZsWghZcOcWYOFC5JZaGy1n/XBiR8xcxBrJzg1U2CiiTuLZt0PcgRe5/pBTkPjgWNap4csiORVgTDRezcwL3gRKK6N2x2LDcASCSWO1Mw2VlTTh83S5DVnHspfMDr73iQPcnHX3blWcGxtZR2Fbv7+jQ8aBALOA+wNgbgdfF2BMKoXLmqywLVrHv2iib4x7N9eCwXb2B2Ax3ytgG8jsiRN+JRODWr4gh/gzwN0mzAkSl/vLvmg0tY6NZbgQLSJTxSikI6+GvpYsJbAZ1ElEP0CreJlEGhanMLVQMwm3J66j/TKiDQJ+mj/n0nDq+hHBERmrBrQ/3pxebV6Ka5IGMSCmMed5W2wQ5Mc1itr+NxakPf7pM33FI4VlvZ4xOAaS8mLErBfjpFX05I7a2AUTE7ya375ostJBsbZogYiJZ0/7tXME5/hYs9CehT2nKf9qp9TQ+vPIU5YwblQeKsl3fSplN52C7pgzc0NK5Q4qP9j1379ul43sSqILivmMwxx1ueYqad9j+JG3ImxcvwhiafNjkFtCDXM2oZyHNmJEgbT6vXCbSPE0L2bXTuBC/JboiBsefp3qEAR22GEGdXj6zt5FEQdZKGwiuoLaYcfbAWgSQnruhXJ13s3ZqjL/x3xw9b3krftRx0mmHoHjhteFgh0IefRB0DRUU90mxUl+M95QiEdNkldoR7G2vAlFpjJqsLc/7+/gdNbaUHDh0hqzAUe6YfGWkkHAzDiY+LN6aZUvWazO5cyN8wtj0VpmrPPnPBHH4pEymfwGb1Vb9LBerO3DJS7i8GyK6m2zZ+iCkj5unZ6JvENRmf9QUexsIyCY2/MdNqLtX+4fKg/icKEmfrCXavcNdLHbxBGPv3ETe1QMPi9MzI3YMMFEB98JCUobkgu8SgNvdL+FLKJ7IqWJUquMcwgEkPafEhH0zWcaSSldwRXtyqNphzR98wpsshWDn8jXAVGJQwuCDr/kbObu1Q3iVCn7eyt+/AxAMmDlST61mjdfoPVHwSPUYGuAnMUtGz/1i2QKfnZk18ehlZMrZZBJfr6cULMqArppcXgzG65QSuY58Gk5pQxfnCI4kwPLHNkFEuTLT5U+ivoh6aUE/U+bcvtohZf4LmNWjWDLIMexTFIfbiy4nOS+pAFz9Y/IeDXCUC8sPTADHzdR2qwF+sZK2MTJgEEJLLhN+o3Ns56whgzGwXQkG4xDaxLdaj63z5ivTISLZctJ36hqgyay0W4Q3pIsZvAGCDZfmbOHEpiTiRbadAze+jJDqAEGytcN4BrMcMyNb4dwoFgbHqX1hVQJU2ammVwgS6a4xC6zs3M8Fc7qUq9hkhIimaZRe51zzh0YQKPa+HPMSyMyG55uctg5TUjBRFQOG1qFi5+F6BqSsS/JE++spWvZtVHr3QotKnrrsNJ9WNjjpNIYA/w9VTMdLMk5s3wv5aGjQ8aBAO+A+wNhGwDJNlkwtcWOn00VIznCgoOTQ2YHb8oGLlzKilED1papVCaLWEAAojwx3ZeGbTeDrBXFRaK2qWKvCDV+o0EaGzDMg6QE2CMj4x57ChLR2fEEtJPsPE6jKieBHSA0FEa9qekiCHlWqc4t+QmExRIrhtMaiuav5gcFiWLt0m0uRQCzY727YkjCT+MhXJkpyvVDiCYJMCsf60UcycJqR1IggVf7+nPdZdt9qQ37TFcICkGV1Q5KTMdYUjpR4FcS2dGL49JHrqUh0F/XmvX5Dt0DoCnBvsYGDuE2HZUYZ3r9poBXrENVpL2zCAZTn2zw0zusVEbBkG8RV2y09IEjzvtvvh9ahSz+Fv7JQXOWr4dDHGIP9Cuc6k/6zFlyC7BUxJUqq6i8YGL1V/d/K/QHo/zHIpNmRS5t4JouNCcuod4xZ2Av1t/XPbp+e7HtajQApvGjdkENH3bcG29tx7fNmH7tuSqOzzNB2eUEUFa2nPzvfi60ppF0NlVRHLnYhkXbsqt+vpX1znnlehjCk8mXJFzLUTbmSGYKGnogqY9vU5PKpioI8gEUfx2g6h76PGl4asZRLz1cTg11HDRK0Wikj94pN25OCsStKt3Gpt38pI2G+1aR1ARChhBRdGcgOMksgO53+PCyM0ueOVqR0o0AOKAE8nY/CDwW7SMds0hZ+fqZcQQwM3zGo0hRG8iO7nUw8E5QXZd9FJmaYvDUbwonGJpkjQAC02aj1hRJ5Klk2z0izRFTPwtA5BrejGQDN11kQb1eoRuwV6K8ItO1DJCxfIQeibRlV6zcNJew48mWUpCWsKAA3V4q0QBPhQM+evFzwbqv3qLAeCg9uwn7s3Cf2ToCYDY4iuBOFZY6lxL3MzUC3mzMxb4SwKn5KmUoYLw6dvKc4CtwII7vgG/VcrgsD7del6xvPKeU6bPA9+D1s6i1tAjyT8yapAuFJw1TbanL2Uw1GTJlzEwTlxsx3D3WK0B87y6NczJ34aXLrfD+xccZ0hhw4Yfn9LuiQfrcVyDY1iNcRlOXOcVh5C2AxGT7g2zVNSdsuiC02i941/wCq/biJiRiJ5HgnR62f2/TfqWVjUL5hoGDoT6GiXoo2t8uBqJdkZ6N8TichHslUJYO//fBb3VNQRBloCjCr1kv/fiiACHcXlteoYIshaNPq1KUqfLQeOoTgKP/vP960n8F1vylwgTdUnbuXMzDSW1HC0JGUTvGydT7F18XSSiCjz7jyPEjoJ4mvZRvlcLs6JM+o3MNTLAVxQKhM08ZL4erLhCwMKKjQ8aBASyA+wNgLkdD6qKaJGXw3lq5lwUFI5zXI8quOcs9LQDpgwsPeXAKaq0h8faUh6EKyeUH3Tg3WL8JS4zMjc5puIEdSUndTw4ylAYZBsjMmZzC+wrprI6wgfjCBavM19ROeLnu0jjCmFyrReRbMKvirS1KRH75Sog5xo7Z8Ts2WGJI105ZIdjD4ASGnXeVp3BJO+WzFDxuGicE47xaXdx8Yaww2nmFbxOanARtyIP+zD399nHfdvpcFMDGrYTiKXGGhznpTrsZ/Crnup+2+ZgWiW9XFXIGzRuCys/AaKsu+E739Hlcx/ZuI2SSksHefO+w5P9IbzOK9j83SZ3zfxdCUEZh0dNapO08FIgVt6+/YINq2oxQvvTww1u9rMhTpS+PTq10tBJroGLNveMqqFtuexmUHBBXe4T23iQ+UPwIh0U2zPZvqWA02UZNf7Sbpq5E7U0mMjiu/55PkcvP5u/T9jbLiwfhVzBtwsqVIZdjuW4pxh0I/nHfnAP+1Y22hjovCJQHc4Sn+uO3cIZYS+L9zqxeLmSQHmJWh2QVhwVL4Z4cg06ZA7fwaB04wOpvU9QlpO2v1s8r1EwShTLZUXa9UzttYsDYQfuYARlreAP4sNLtuTtG0MmMzygSeCYAOggCcUQ2Te0jtEoasUD3Wd+976MIsUA48y1BJtVpqqGM6h6Zo+MMNtQg/QRx2Nwme6CJ/PMbMcV5g4JsQZMULtxI46zt/AElXMV9JaDSOor1H7BCJXLAxS+Kt7NPcVa4B+J37xjxTJnjEqwn7fNdYJ8WF+QJ3jbdf34ysBBHgAnfeOm5v+cxg9AAURzl5JazPvh+J4FaXwMPQtlrHgT+Ox2norCpDTHBYTYFJBmeDf6lSzJdZOhyLRY4KYWzQA//oK9J2sxCr5YZf7xU1UOQZ6RufM3hXT8HWr+qFwh7wz/vqMgZKblD8uX+U6ciUszJQ91xzGD5nrhdrJPeSTzNBXZts6bVUaLTHs4clnaFUaGo7Hk1qkTrjDPyGpVg41RxTuX/Snjnd0ibykCerN6AoL94bBoTGAOLlaTX6z9McjRkAhPq7V8YTBKfv/rHgd3CQ52bpemE1DWPlOzwmSRXH3dLBwJPa/ARZjTqdZmjhoeS7Mp0zVP0nKhXPcxCxp2gnDax/iv0lbXdgTmZr81H75QuIAh2TCiTZ6yepkc58+Dt/U2epXCh6uQZhz5ya8rBAA/kHT5AMEwyqfOkZoCgGYVorN051I6GB+Q72uXtop3Ms+T4g7fxkZYE9i2KsmmLHjcMvB3QC/6jQ8aBAWeA+wNhBfGoDejYEUB+bj6rcfCm7nrY6gNY7TAp0Aon3bTTZf291y3QntKwpQbzWE75zyCtq9ZlyYVUjYZt3jCnEmTb9JBqUtVrOugjh82UvbpES13WmWtYXZI8ekcfqK3JWO3QPJze4zdE7wamSadBf/JVB4zU2c4Ur41yG3l7Uwzqp7pra/fB0hlkDP7ur2iz7CAFj5V927mImDqNlPkfgnehwdvev8GZenq54Pf8VQx3r60ZCL3hgIsLLye0lnqkcRAAObcYc64jVSaQzN4yphLnRkP4lIHrJvR+ariBQlLWbY+5xhI5W69Fzgek+LwW1kpgMtf71K4I/+8/NLDkhW06i33u5Pv7mFFDXDBDncrI51NhKR/5acD0dmmyZYlYYEBu0gyFziJ45tvNq3a+V/OAIvkAns5NB6wWfGuq7iIOW2EBQL8YBad5YcOFdCjCmM4J4EIs22o2jp49yLroUFDBWzSp3G3XkNSxQZI8xcMBfqOakgsCgQXGIM0D3nJPx7flXofMMhC2WQJAuF3kLknGzkijCAdt7qX5U867GisM+kn4wtHr8UzZKVETlgmEU7YD6vw981ia+JB+6jqki1NU3JR3bHt8cZXWRn5HbSx0ZFhwHbPfGeSaRj37Q+4XGILcJyp6Fpqqm3Fvo29kQldrvesUl502PL55Qml0Nrfi1KYnQtoawXi3T4IKPdCtZuc2qif9IqOq0JXayIFk/mmUj0nEedBpmsISEN0FO87X1nIUd+9sk/NUpk4RZ9XPH43EMZL4O4J1DK9zg1B+RWIYIXIz95LU03kaGMvLLb2+8azK4DisW1k7lnwzBPZpWa3fVyk2tGE0iB9Vv2QshLWVYRuXFBYDvXYSTJxnLIEvmAmsGYpfI67D0KaBuumcYOQPTYJX5t4q9S59Ntwt413GeHJt2m4iNg8zwnG5O4qZs/sTP40BcSYQbnpK4IUX9tXn7kDazAUETZQQbGg1mA9FmYNhANEvJ+dmcxUZzyBjWSWk+t8OeVNu/2wOkFRu52zEpx1Pa5ptDn9uMmfk1VqamymYA72AyFxcvu9uGf22+zvi27CwrhrXAbdl+MBVf73pwOONbMr9J6oAFXcL/cxKAV0Lvy4f5sdV7d4Fmohncvc7BDjh5wrqAQJ0EipWFiLgCAxR3UOKhzb3hFgNBC+7I7F7dnhix0ELc2QytUN0aVbCqR0fuMAimC9CluGI63AyPeCBxcNi7+T6WyYCu6AlcyRTdvZ62gEIh6hRDyk2kGi+YDcFShoqLLQfphf4VzyjQ8aBAaOA+wNgatUOoQuhwc6awpJijRfxJPPBDKyThkcFiEdMgsnJUsKKW05LH4rEkzxvI1uZJ98bbbiEbJC9vnW6OOcUgw9tOAYM548NDLu86f23EEb8Hby/91WKXc5fDSxsUkNaxHwk9iqTIDezPd0N0Je/pw8AIm7Qfwk3F5y+VnUWBHGQW9zSAhqMvFi4wjla5uTpNKoNsD4y0Z77ou/wio82seQonsM6KmWBbgLaORR1udG948+V+xNCa10jcvRvHX9L77otSjuxCqAxTchwHMg+yDsR7Q46CH/5KKx3s0kfuAAWb0/KiixFR4tg6No3uU1sFNIR305LUwk20C/82Ud51ri+bD8fJWdItaiybQeGABsmXSSXbZGuccVNJnVuTDD3xKN3UXQscY1XfvuGBk2nsczr4a/dziVkMJxdYnqNkARj9V69Sm+qn6UuGi+P5qzpo6g0Iv3o/BrhKUgsEd039c9zpoIV+Y8ADXA8NXNcqO61EtQ7hDJyHKZ/Ce78tnB2zToP8HaBvwBwVS7Q+95ID7kBL/9JIC9bnSmDh2kk4R6JUpYzLCTHgHIkVyJAFAEwEuW8Ob2YnkPCNwOsB74A88dnoRE+12diqbr8kyzo0ga69zmFaXERXRGSAuB6Sda0YTM58H1LLoMIh5ToeWtsGC1hBzZ6SIfOGxNItD389USRggBQG0SFtocJII+BTxozLbdzBcyjLvfTLr8G4jafuUNskcLIdakbTZzZeaNnp9KAuXVM42SiznlUc1xspGXgpquyLTNLxCPRLAcNhuVijf4af0JJo8X7l2C7DSZuRVB1ZKiHzq6vhNzVWskXOfVKNYXi1Oz16lvtF+t6O3pdErngYGmFLiNZx0fqj9F9A1NZYS1/0E5JiBNLUNRubo1exd4st5zern1Tv/W18uDSDnW2F3/vT4nSFAzScs9MypoHzNfpaoqZd8oGOT95e+gfqDAufCezdrYUBWjELcRUCx9E9QpcSl9BWpAPHhhfsBnkc7zOaled0QGvgfchLkiQ+VrtYKTmWrrMO2qdI+aoUDmlF/0ERo6JBdg2qesIunBVvmchPUQymdtOTC2KUDeDRasjWz9Nk78yP0iR2OlB6K06GhLeUhRqw7uoY6iS/FDf0bS6qPwzX640/DiJhis9sI/vCcQEgVBHETQvZDN6s0aog7v46PbYBN5Vbi1zgMoHVuOEAqwnxe+TUC2GLGp8E+lupkVa618Mfpfqg77yPdAwkerUQ8ajsoQe8OzbH4fgShHD8zlK+P48Ta9+CAss3qujQ8aBAeCA+wNhGvy+5rsRLRPyQHCcScaG22o+nmJ9W79RSVIQzGKrf4xR24LrR2zWKb5/UdUv2233t1RYSmHjkWZsze8gsgEFC5EeemDgNSZjwfDIEDAGxGhG9cbM7GXvkLOiJ6H+9QLMuHS2SMtS5WOHgMFNPI9K1U044y97ekUEKCe+iOJ8HyJ5JFWjiZTR0ND4w955trXJDxZIq864JpPAiA4d4TRj6Gz27ZowyaVaENIwxI0Dzgd7IUQDpj3go1juOVbmwQZTP0b9bV4LmBFRhoMbOe9TE+fmxo16hA8WIyBQ/1w1irmq1A1m1teGAg3whbNOQp7SKjZynm+34qW2r2bRnONrwMtYCPZmRl3QubWalkwOR+8IOLtnq4nBX3cT2zOkq+wkateBaebkd5oAu7pTE1C3YEznEboDtpj5kZ7h6PnxrWEgjHClt2xSqbmmCIjM07kRHQrK/zs+knl26tk60Ca+ICCYOdQRbr/gGYZsC/gPfZrvxIqEDGZ6NJshbcWNNFXbYn5RQOYKhrjlbyeBv4I3yGW/UzQqn1INsB/Ov6nZ0jKvVLG0R8sE5jABCBtyf6fhpG5APFmMJeLjzibNzwLQzDcp86txREV/W/cSEueuypbc1Qr7bpDXjKznIZS7HGK5WjaikhfI9cc4xVRy9AyGvvCVKw8vWgFR35A81xexKpW5KOj1Sku8xysEcdHOaMMt9ankmQR+uzHT9dmVQjAFQiwNoyJjIAoUp7lbDFVRzfGIGXsgWT8cGvknT0H1PnLD7/Ahnh/nG2SdL4sY+FFKcpHhju7WuE7VW731p78g8qRIChiYwQdX0udUx+uA3GS8Q/5nfl/OGg5bYbNqRHa1YG7+OOZVXD3ArUfptPNrecBvx0B4mf0ULaYvsbPzdsup6vgMoK9c10vpfrnReIW49lUsPomFShwoq5zdF6UskVy8Q/8CnIseB4S3arSUzDiP2J8kzwh3XHeNr3F4ktBo6lavrJZ+MI+AYQ7AWPUXiVmVzOgcYLihzgBgiN3Ik6huO82UNdU+7lgKBx3AqxLJn4IKE9ArueYnfbW+ufZ/g99NUnCfsB6no6SUvFLn5Cs39XUp+jYIxT5j6To+Nlc7MeSVRfO40u59Fc04If063MmWg4HKNSk0EX6knSOVJOycfmB6aMW+xMdVoQAAPW/ihnVUZDEi3imTA+C2hKELs6g+WJCeXKaOTklBse/W882kfSsZN0tIXcRKnqh7morBjVyZaDlsTUas42Tn7CHr7uZWNkUrSUgZPVrfJl6zcR2jQ8aBAhyA+wNgL9Gh46pv4TyDWkcMj6IYbruFWAB+Xx9wzZ2nhgZPMVDQ66rYhLIND5OUuy51sMxIsdbjASUqN3gPTyx0jQUJSKUarLEtyKX5goHhjE4v9JqR/5hcdxrlttVgQ0Uhltiwj3O0OJ+5KLCkqwIPk1v645vSEEPWmon5SImPu64YvXQiwFw2PTyDjKXinsuWIuEGovqBi57EQoKeWSNo3VnpbFqb+zNwEN2028t9hHDsd0VEeDj1E3U/S9k98spWhlwLE68/ro4RyhR+XIOvzcIWLpBwcq1flPzePKzMA2RYRVmtV2tOMlF832EwKcGeH1GWy+K/RdWjhJIWg7uVsoMTIq4CUoma6oSmfZCXjkuO9N5UrDCkzgneLtKDzu2QfKBv14oKXF9zh9Y1GxngnQmQeS3cayiIopf7m2EiOvjUzWEbtYm7/M6uhUZKGyQNZmNXaP9hfGsUXnsa9zo6GB2AIb6g/cXMwyMTaCvmWEpj/8zMrUcB5KNDzYaU2bO1EqeVnJYCBNXv/vo775/AjSNf/UmjcCXNvblOoz6nsDVd7FFbxLZ63VOkUMtvOGnBIJ6djSP9x53GLYinxCTORNKOYdeHXMGd6Lpbjue4IFkm++uq9ZsvTAVA7I+CY/HxGB6eLSPDoGIn0NEuRylNLdnK3KzILYsh7HIatG6dMvFPjcjQzL7TwWhxl/p6ZfKtpV3Mdv7f6HG6ApYFYfkqd+zsMShyu0PHgqr7Q9UXQzaRtN/ZGwiFOc8AHl1zF9JsR8sOA4kF+mik0iIKkmOuKgF8bRXhK7onYp5kSKJmJJ88ZXqQyv+d0R8mYgAFb/yJBh4BHdLsrxEMF+6kL6B9G8kvYSI/LDIYcM8/0S/oh09XKIeVPSJ/s3cyRDQ2L6q8c+uyzmfo6k42SDKDl2iLjG8qxa33e021XDr6M8IHBA/YenBR3aYN2z/cm9i32nmOMF9Fxd1iW6PnCfZmdMkrMTHG3Iw4q7iliHomlK/9Do+59JfZuhWGyWruHV7OyFyo9ZKDMyEZc68Pg8y+zAKOnwidQa7U+JdUiTBcRrfeb74zSYc1mBO+h0pVWZOHcbLakQiMjHXKmffZhXj26YadubjpYrBN74E95P731Bz7rOG433TYcQAXbyO71i3KzfPFrYiFuVialYk0K8S7kenHLSdVWEonoW43qKb6sb8qribaX1Gh4rwI1QGkXa5bHPV9w9yY3CzIqLALyjHOlaYt+AEfP8KuzRQm60zEmOwOekOwD1mXURD3BvmaN2cXZBk2VDSjQ8aBAleA+wNhIq1CVwwVYjo0M7FcBLyyV0Xi4vCc4/JFSo5bXxjKC5JV/ZkS1ijOE5s2YXfoS9W7kqPTaa6Mi8c3o06gxQpUProjg7qw7WB+CAAEDKSreQpUrL9Vr5TYdPWHIG53vUOhoyWCyKF/y4x8n0xePApX1M66pfaz1n4kf/v5jNF1NgLJJE95+psqwafwbDJk29TpUEjvCixhiMZzO4j3KmmQhq1NUFVx57cDAOAxGL1NYDBxRCvzyjC/wAYQoNx1XqAo2Y4MN9MLvTVN5+W3iif4bky0DgoHFM7R7D6U+iZ5cpHNlrd3zrEn/FRP5nmWqKK3nHo9W4a5dZCikb/y7wC1p3kuP/zRr7+LA8toTcijPh0MZ+fwloPH6c8T83xDarTy6Tf5SX/z3tIQR4pOI2Rho0DarV5gWixhbkBwPPEkb2A+NRT52XJDPJ8IM+ssALdTj2EL/agiHzKZuXIw7v7yPAeIyixqVeYADgklfisPdoZjQwPNsxTzyNtnijuRytcv56MEq++EDwJNgzdZtO5BgkYHr44M/Up1jF0DrJFyceCU7MhLr+fzgah2tWQeF4EKEIeE1C1nvThOFysQB7hQx/VDiwBznpm4uPchopPrzE5Eji/fpcf8ZDdVuNIbajW77hnb2FcrDfVq7oJBqmbabdsrRWD0AMBOssSgzywFspmV7tjql9rhtLw6T7QpK8RUweh2iNJo9wiNmiZhRzUq3AaSQrN2M2HcxD3VWcC0kIPno7Qe1GsKHn7mNHvKEZsBbo/zAPqsnN+0K0/6Te0EhR5YACrx5K+IVhqn3icvRh5UL2jU8SGqF7GqT1lPhRNCp4Yu0J9tG0zafdDwkEgSXsUIPL5VI3E6Ytyo1nHKrvkqRGWxqxq6jyJdCyFhCx2tBlCV6kvodXVszX8ATjE5dj/vCReAZ4rL2f3tPXMUubEZS1je4AqmR2nLfYM0vRr7xyqQ6VFRulHj9pDTEuVxWtJl5G15nLslcXvKR3HDgDtrzzO3k0rBWUYx0RT0HbaDE4WyfpC++fH3q8N0k9mjLJWyxs0U+Fh9Nq+n90yD+hD07kfnAtHCU0Yi9+/fnmM0aHy7D44U8+OrKDrPhTOAlgi5kJa0TeUcYvSTo/9VY/V92rhxAn1hkKbedFv5OX3H3DuUEi9DCh2pA8809MWUiNhGhDLEY7xtPlFGBdTb+fsdFcpYO+YwlFV8m8v91lYeQnDFtaA3LZNJThO/lZ1h+aPR/R+TdtTdDDGntn3GJZr1IJoa4ywpG7QWV6WY0WWjQ8aBApSA+wNgNX2h4F91cY49VeCo+smCgCg/lOdwDWBRz68090PlfawBXBmPGTNdiw17awCJyZFUpq2DovqKg/V8E//GMclLvBiVkpVjrQ68Eh2/2ZYDA5Fa+bmbx0xC8UubAQngBCyWPPFciSg1qRsNHgoTvPQ5UFwB9OdCzS4RrNM4atJyKDGSJE3WCUp6A1sR1lrSx8v0knFmnEyX4/0JMQb4QHOV4y/C9UHz7IYu7PVbJlx/AB58kagIyMTwQ6w0jc5cbEPdxtKxWOnrytt546aGPCvwWWun6z6yfwVRV0dgwFVKm3unr7lZHhGbuOl/G6ksCSx1Rw9+jaybcWatFFORvp0v1y6C6mMBVGa9lGuZxnijBqEQDuqpSMHEH71fnwC62ag/XfEAs5Xlf268+hiz+cQ5Az1lgVdkKH0cZlGso6NBT2EA69Zkx253JabEIdaXRSdIn5cgRmy0uhAKA3NW/ZpArh6q7r+/RRjiFR3ViTXhI74LugHzVvp0uB6LmRMecxKPqqLdZva7Ld15xPXygukpScBIzAtbwqGi+FR9T/o9LjmMV8goVlkPRv7hsX+QGqXoIGSFuUQPnsPoMikVvl06CZEtYv8MlPDYcOlXJFhAHsNpnfxniJk05eBb55zDfqY6gtgIw2YJADtynWBaQXqKvvOJNM9c5EmoYjNH7iRHFvFHFevl9w5HHsXqo7cV96rk1l61Lt6EaxHfnv7hwXI+Yi4ihvyR+SWHjBuP90fO+HxCmefPA6viUKzUvKT2TtM0smYY7+WtAw4T2uZU4TPzdedZMP5fSNt5Z5Qal0bWv6X4bEgIUlWklGFw2dlNiQbGjFZMq54cOCxZ/5YH+H6RYSBqu8xn7l0qleKJAYYgqHwS56m8ggFO9qIyfp7JAsIET3c5Sbbe5gBipW6JLGDsCE7Ot/s+vxlzOuxiOHiAmjSWsnEUs4QYM7RgMTBCeTdlHIzUPcQpSUouKddRfSjZeoCgWgi3b8A+Wcit7A08D+U1FJOWKQryq3Nx0Rf006NrLbRFUHGgD5ddjCPCYJl6JkXjjHrzx6SgDlUQPueSun/6LDlV6mAZ6kO/TFitlWN8mk1NKPUDJKeWtBcnGSgIW7zqs6BWIES4AI+rzKAj205BiH8P1P889Tgi842KW1lnn7IfKuhdKILp7ZDWzdNiLQEWjOuj5cnbouCxabILQSVKGAAaS+2H2PP+LRxFUdq0Tir0ss1FA75c5ZeXyCaM80vRy0Tjualx78PTOuZcZYqX/DRuccCcHLchNzBl6DOjQ8aBAs+A+wNgbZ5Ir7uH4uGE3CuuLXZhG8xQpCGOYQemjDzqU5ThzNawY818x7nMbJ0NO90VNVvwZBkpqIki1TMWUpdyhg4gDM+zzU3iXn5vMMm7rmmwkV3cE7vo5OQxgwHv8LDYdtLBxr2EUVCsAqNvJ/PgP0jrNfK52JuPtn6Ys0V7iZ+tKMYI5kF9orXjabKcNmnMIh0P6o8/ONOJLmEXIGNBBDFQfDqx5YLZETeqPcOlLUtY6Pteg7Hl1H1s41aJ611EZueFJwKqch5Y3esHFKH5XPvkGYxZxO3zdB0LFyUuJB/ZJYpQOWqrtbSG8c4bg8zlEPBfb4Xjxnt9KgwYd1iuQ62UC6YOOUMnilyNkYuhdt451uSF9BzPnanQbONGru2MaFS9fIim0X/y1/1/6H4uT2oCconU6KqHbJ5Rh0YZ0g768WENXGKzVEYfwCXttgHJWRWYkX33O+HzEvgKCxdQoCuSZCJccHQfnCNntBZjdcC1z8gsAqgtd19c/AzMC+f9L/JMwISwFkb+/VshTCr24/DLGezWsxt3v0zi4IMy6DFUezCnPHp9ZY0GhFp3kvQL43k2hjVS8J2VMt242j12AscmcZfLH3N/D9HVQ/Xo9aMNRarwtp1EC9Q5MQRaMph0Yz8iZfWb4JWcIlN6sVZ9wkyc0yKFkAO42p8WDGvE8qE5AsBljDtN0b3vDqsK9/4oxRaOyUqO2UJpdkMLvds5i7GQV7djBTLI9qRRJofWPjuxBtBSiHWWy+IeQuj+YrH5bWmPTcaNVyGVvmQ70+HZK+cUMFzQNjEURbjYW6oRfp+ILiRfN8EJVeha8fNUosesasFWkmPWXY+yGBtZFUYOuZXWXndj0MVpdxtKQEkrfKkwenxsDR+sGv6sDVn41SIFC9iuRzNGwF7BJvsKikkZw9P94rza+FU3YC6zpRxIOBUrlMFQcNSqLBjL4MOZuicKQEz/PQ5BaHZtL8wF2S8Ac+ASr44F0bdhkOjwFyLybzxnoei8xOAq3mnJWn/9aJXLcgrNLbkSWsBdygvbvkc87fRodWwMN2nnAyT3x7AVL3nbXJpKQ0oEqo5mDPKXKVnSAkpJzf1Yt4M4IVz5uQOH+xgEzf8DHDyT4KgRTHJ4BIYEZxsINR6I2/XILjhoqJGRnJ8IU8fgSqy2/Pdf3Vt7t21SVkfkQEZ8painBvTkiv+sSpfk6jkokSBPAOSdf+baAM6ZsDtKM7pVEr9K4iMTrB38YzUhim2t5Zj2AXUwtit8ZapfhZUKbFIJO8J0FrOOFcGjQ8aBAwyA+wNhGLps9y0e7hMK78xbwt0qUNxbQG4BO4U+e9qlhKtmgC0e2tp9aj1RmCAL9ZrDkSs/zSigzWddqoqme+3ldHOFKuo2nrgzI7F2kEBVi3NOnnWhBHB6oMQPR9XXZzIF7dqUbEd2rndKsO6iHZ3nFOdnDrgMNs66imAlaRzqFHnA1+tpmDktKOXJqDtAmX0uV0tELBvN7XFo54s3R5OrHGZNlSon3uustpNfSWB0yK7Pw70sydIh5Q0DxgYdOZ3W6bKJtXENA40xErFugCuJWhxccG5t2ieOdnvJUQSqq8JzvNZN1h7KLcri1Abl1kNCEjpnh18N0jncEa2nWe6uWpCpLL56qpOCen/btL4p7AWihP539gu1GMBPG0ryhPg/yGNvbcFZbJ9N7PszSXZEI9C7zBJFgoAVhCwFaYIzDhI5NWEA9LNC8UefG/317AkhsQttxbGyL5eCceNOvO6ZOr+1wbeV3w+y4YJJX31aFsnEDsAEk2l7ivb+I3p8OtzAVZIXIHFizNMslDpiphgBroO0Y/ZFSuustz8j4fv49yswu1o9QNEGYB78KeOtIuFT19RqjWqzDqz/5H6zcXZnYAwZDUyK3W3+93p2q/smbog8/ZGWUKbr4tSXQUxvUv0K5vE6Nat9ZLeQdonW9m9rnuk40XeFpIJsK0iUBEA0KGXGhioWnERQ/lajZnmPKXxIiYrYS3fzzRWIRhStJ05sHEwLMrNuDId+Y+4cSWMhIRWMoCvix0afbiig7kh/DiMwb0xyrL+AUp2FRsGgCnH4/HUT6ftzk3V1kiAHUxwHEakQasIWU7W2pvSjpngp4rTl+QhDDYVAj7J9CR03QVPwgb+AYC5/6DD1y9elll+A5mRkwOLW/23UMQ8lCZsz9lauGiCiN5xeIODkmgjN1e7Fv0wB+HcBCO0Hg67XI2CGYqtGDdn+ecyAzkHoJa1OxzcDvVW51TvzhTtisOaZtX7uE504IkbZyHD18y91H01AeX33ZlkchLES95B1tdF91AIW30h/HKvpgFFsjEdp0d6VWGzbIEHuaPKagRXNpyFErMHQJKGitHB9Prd4EI/5a5Kino1LCJanmivFMZWBC1zi2vT3AJVv8tZ72toyrgUdV2CT7v6q3i2gXt2uSPKJ9M477apEaMYXLyPkNsNnJMcRVyZOjzGw9kfKECDvSg9GWzcKQfc+aGtL45gmBgI66UJOm92EvJD7Zq2B05Rmj4wiAfNCD1dYNyUHulb91s+DsjvD46qZpLuydmOqHwlMNKHcV5SjQ8aBA0iA+wNgE6puhYsmTlxIEevdedLeRaxrEGawqWLrjOhDDB5P1FoUDTfk5RydDy7WbNBBilu4w0wH0XrDtUWctJGg1AOW8EGFX8KS/mCJuWIH1xIEuUQIoWWcn0iQRVpUhcc/2sUVvoVVI6en6dK6OUUAOL8IZsAQ29MMMBhO27BEPNukarygL71DbirJMZLFbquWYQaT5/yEIyAipDj3kEFWXBtk6vYk2y80nhyaoKyCJ87RLHMn/cRmIPKYjtOowOfwQL5V53b7d11ls1rx18gKYCQi9GJe2DwNbP1jvuJyF7wprxSuhDLp19o2kOxJk5bhbotdCDKuxyzRgx+27uO+AgJltfFzM/GlDSLHidNMyIpcB/yURyEAnFzWFs9kkDrW5+p0vhsVAT3CgETPdsY/ww51fzyWeMhe5Cw+nByJMHKJRGAv0aHUodey3OrXVOAHp9l/yokwi8spMJlXuZHcFJe+BOFUc9xxDFZP4i0448qjdm3yNBI/owIHPad4G6qpuTpzdqr5OlzpJSO5MlwKAJ9GP5uWMalKRdSpu+3Gi1y+/HcdpT1qJ5brCjOly7MoYNjZ065izJi82qAPNXhAv+RifuG6SE1ncgB1whjlZOi4vgbcJRHUJb+XDU1tJnIH6hN5G6WKt1JWkTnof5QSTCWtfhiRBqzQ4/aeuSdb6u/1sCliJSbm4M57+rPgJsI/WEYCz8tGx1GXxRgkGBub8Ej/mvblm/DOpnFOPN1fjs78o5NgkyKZmk+WgGoy2NVD8saBdtQbtK9YKmIsX0mYEoEzYemWalbYWmQjWpZoUw0dMw/SYN/8SX3+s9i0YE/cshgO+h2h102FBtp2a1luvRKhYQK1EJNWmF/9Q3ilpvIImT2D9DXt5A9t9eAdLdhPiY57CxZM4DmCRQnxbudIpS5CRCYxaLtDLYk4xm/x2lZySgrhwV1/TfwFAHpavwqVJBrXMsjtfJOqW0uoAKb2Z5joSQwdFkh6vK0QDw+zt5Ga2oPceS0iVja6k+hXsrD2QQFb2xqHpiCPfC7KqQ7wBZGE0lgv1+lAZY595E1xAIDJRnDfuL6/TbuTxp9ACIyjlNh7aykL6eYBqLxa/QHY9pzE452uPLu17bSswN/9vIh5wsXl9J+1jL8/atsTLT026C8eOHgqgJEKGGi5ivJyVlDjt4ihfyAhJvlDhqPvKCFFT/IGnv2bcjhv+ZpqZrzTeh/0Ic2JIcS2YXvJ4oS+QvxamT8/Yraem4wTlezNR4RTNMkImRsvDu6MQEPC5KQJOkajQ8aBA4OA+wNhG6GXe5I/MuLMEPMZGuIjxs0w/rIZo+yebaJ104nNoBYvneG00cRCkbZT//YxsApD3AMAo4fgGYHkc8DuCL2rYmpfB/4NJIyGt8xdi72c0FfKclpiBlFjvzeI87TXV8YxueKMRfDCUNq7BAzFNku63etqCHrYomNhfq0gUvy1UZeaGMOcDPuvrJIUqtj5GkFkgkzKOsIwkwx8+WDuzNqADvXqAPb1acX9ECX4cv+LkCZb0jJW09btX70goC5IL3IYho03aPT7mF9xK8SSj5p0qQ5Wibe/umYelXFZl/wrD9tMNIb5qj4LU9flt5Mp7IETLlU9+CEfUHltDGzQTnvdpsf7gxyNKwgqrMTjc/coqJxmqyXXUXlXURqZJKucNogJqaD1iQhEbD3AFyiVuK2HQVY7qHgXwykqaxGrueEnzWBrHsf3gMsLbPu9uwbXhzuZ/y0PHnDf67PG9Oikbo+Uty3luC6kNbLYnbgGQEm9bh1AkayOMdg6cLXTvUGa9C8V7qxo2uk5eK1SdC8Ahk1e4hdWuuXP9DHPNEveEMxNZk+Teubrc1l9nTcCl2/fXBPr7tzUKDuMFQsOLp6eEftc7dtuOj+7QTu8KW4KaoJz/L6BcC65qBMP3g3PEOiTYKlycYtR8tIRE7h+zQSfgK2NC9+ars2F5WbgruIc7Y6VVOgpKPB06XJB27PJ8tz7aRVxqQavxBOMsIyu1/X2DpsKvf2lrA40qtAtK3E0deLNFZC+PCh9xoZJASAag0syPsfKUyGyEH8kpwsSIxG0Prp7x7JPV6JsFNmzpqoEL4O2db1L+qyROwk/r2ZHDwzSKzvIbbAJTbvemymmQbLcIgy8YRrDxAIpgZ7xtYtpbrTOl1D8EBpgWy/uIWzHwvhCg6YO+Ac1TcWWvWgXT5W2bucQBsFcsd4mE7ijoDxwsKtXp9ie3njoBaljMvK5Ya4ZjnL68JjR9K+SoXbLx6wSIfrxpmAMOwQzwe+5+xr2Cz/TgqQzaQsxWVzl1yMna6TjlipuYMxxSYm6XaBRiQrQj4Uc5RmZVsq1unT/2DYBepzf7KkqzLByJNU3MJM60eXT+qnfbE6x6nP0PFxUmtfXeLTdKPW+jZYzrD7oTgakMk3wq+rEHfE6dzYCcPvv+F7k3+BR9P4Kf3DskTJ1aFb2ZS0ehRHDKc7NS21hhJFXgwHFSA10vCm4UIqCQbDPDGq1d67FBOSl62cJGqXQhDsueFgwRWxsmjln65dO0KtBN6k6b2HdAlUDRPOrO3LjkPAcL3SjQ8aBA8CA+wNhG39nFzeSLUVOqvkbgIACe5rqEYV2ghQ8RruRxcNrdJBeQ3drkLklKwxKRziom7nHmsgrpEsB/jGqnywhKV60cl/fpWvwyYT1z25sQthZth0+PTLbIlE70f9RCdQlSu6zoQpNZrh3npXSDk6L47fccORgF3J1NEqzFOWgZulJOrd6GByF0KYfUMoMqnCu9HHD3JbvGzPAn/qi+fOsgeVuk6tSCiqUYCvwhzSSmuqys99jxZX2gSm7OZhOXahTQTKzGgsuVRU9dDK5znQdg+1CCSEsbT6v1twUxz3ywB4vl9wN1P4EgNFX2eFxtQ4mNIGAlDCrDxRNV0rT20wdCB7RlAL7rBtXVBhATW+7RIjMSOuIgKpgYwdkIfF6A0LbdmAv9n5Fc0yRZYNW8Zx76kU54lwrl0unPoseqCl0bKq6Y2ECiH3feJhjcJAPtF9Ichlt1j5M7FyovsBvCgYB1jKXbxJsad/ACqgBEKoPwkzir8YcIz+Px1c95ZIbAxbtCNzdeNJ2f4Ihc5+F7EkR+X3LK2JLi6Aodz/59mFZryRHUm1hMq7YwLb4mmXWRKp4jdkTlwaaH+nCoAGSYifPsTOzgxEPrKMD2HUHVHRw3tzUbdZ8BzoG1J42+a8vXvB0rAytKXnvBRL2QyYv78/Bhc+D7wNYPGfYrue7k2+n2m0GpTwPfypdK05QsiiN9D2PtGs0m2bNVzsxHw734QkPPdu2k2GJdsemFygDenNOfuAKJEexbKpAhRu53UrsEGt/bxzP5AYQfP2NLo/SqJfXARy8ItD4Nwch+tWI2+YeKqD+NV20Dlr3FeuOoPtu6GHZQRpNdGLJSQYxGyH3HPGH83pHYRqlW1P71zJ12UfKhj8+T5aBC7lgTIPvQyYWzqr7gt7mCd7/eA6oj3ARu7SU/prlRoS6TCn3vG3R0hxhBT+MEdB2MaIt7LZAxLGI8bHi2BcPV1WON3NUOf4gqSEZZU7ibC5NtjM9UyMcMTx0C2CTChGUgqePF3SxkuAFG+cQ9H/QGl3B9FObHXn9C3P3DQNNvG5P6P/oRH94rfldyDeVBoi+BcZITs41Ui2Ic3GxFNE0dkR2RgdBiK6YmWBgR+schFUGKSdpSpYv/A2l8G5CtjOTKhTLBOwKdNp14XfERZnfOgfkTdYepmgZlMcB63amQnIGEtUhXD1evgMakgpGnWm/QmlPW+3j8NNpNqdGeJhgYJ4omJoqijmNEwSwmq5K1XeG4ATKzgDvtChcaPrqgZFzoAeaVRatK1crHMF+9fWjQ8aBA/uA+wNhAQ9mswPx0BUWS3HRKBiBc+SA8O+7VNtEyQzSVGmOkuugeNF/RlYkvaF69bvTZajm8vsOs3GPnom9xeAURzjzwB7GFbTBUgEqNywkqnR8jTJ2DHjO1kxzAlZCmbPO7neDM3nxPqdH8z2lfIcDkNHcQW8grDlJndPVbrvwogTN6v4pkCDl0Jh3qE4GBKhjBfHaZ2sfk1byQHafDqat+IKyh9QPzhsarYnazf9uh2A+S7fMs4NaHPjHSuFtYUvfbCYPysGJm4sWIXghDLMwfxnj5P101Hy4keGt7daQC9Y27UXrjmzL4Bn/ICL+RbfcNRq9NIrB2LqknA3qh2KpjzjfCRN+5OW1Rrj9aWukA6/BHPShvqnWsmqK2kh9u/4/6QnAWyAJgsNXTu1wKkJCHE++p62YqDS+aJkJVbnyyRYcE2BrEaUg73iQ/Imvvsi42n2CBLzDMgQpP9BlZNsMyvr/6wf5EB/J+mZlEnVEbgiORCqcsBlG3Ke2ep3J7fDsWph4HrkQsgGWj6Iouj8iSafs6ZycZK/24VPFdDGe852zfXKNkTCTWgVUDr5Mnd7dzDwx9eh6NZNjk93A16yiqB/9dmvrQpGJioYhnemo6AI6mFH2Qypzf/sBtVxJcYlXp3vMpRnTDcwhcr7DAk2eTUeELqOfEITI0pNVuU9F2O2Rw9AkArezoRSnz+07S3IL4GdsMwSCCCWIUBeQ/NbEs1IdpPLjqtfx4UyID5WqlGsM8aNZl+3sJJkamd11bOmCevc+onsRpB/WJbMfbEqLkHqGXdpereOYUxj454FJFavWvwyssh0AeDKzuhAfpKH16lPU33jiwDtzGx1bk5wEnYXxYG7BgMNaP1aoAtFs9meIcNS942PYO3CaXOuzQJ+R1SmzV7dcRHGoX4iYR0zlu1SFA+IaZi6j82L7FTjqlCwjywW//U5xgm6isoON9OJoe8FKqIQCfalKv0C3W7b/CEkFf1EN3bI16lj2aesniKyt+DRFhee5BL/5FAYSDgT3RyEi1I9guP1PUQEHOhc1OuIyIMqxf+bM8AsbZYxzgY0qcheelFt5yJNMtIikQsUpJPxuKRkFb3fOz4PeqOC+Vqn8iDOiGW6m05kR3ykr3pt/tON9NrjdDRsM5MslUDLaE7a/QRzZZ6tH44tOV+zbphu86QCQ4rgF+endTK3xSYaIw5ii3dqgsAvtRBgqd5cZglKG0RBRuQefqjejg6ZED2AxLZyt6kJWgmnok9i44s5ko0UJ90d3FfOaQ2wd4ilEkGKjQ8aBBDiA+wNhGsKTrw5Id3e7EZIYWXt3s361yYGeqAa9hxS75TXJh3xqyer5xFJ0q2p2XN1KR5j8XxrG5zRbbeYXmnkoAeZoNZQGpTRnQJDEFY2ID31xoNnrzim8zFqdbxTPsPmqcRWPoL1u1UnftIpjwtWDXihF1N2CqzOtOfTaOpb6Svxf+fVfIgLjz4WhbDPd3OP3D5w1PLO1b0SU3x6YR1KOKbrFn6YGb1ltcZRz0+vS3AbhW52ZY6rbXbE0M2UgyfrdAq3nhWWH2sRVtRgyyGc6EMvlvB4RJBqWqiOP8pwPQx8i05qzT7BAvIcWPjmZXBSCZuzmi3hC20Q9DnVOrMF/VlGrTWQUugb8TjE7CzEljY4APMWS+okkpChmOMvJvlFI62QH/ACENcH3ldbzm+0Vr+3jGTvNLe2g8hwbCT84yeM/t2A2f/mSuv7xL1sc5TL3M9/zvXAZ4rt1nJDwYJVQmlKSn0eZ1lPHWc0rx3wKRv/uusvi42hIh35kkGy7rEuh3OP6tNN8VDCMZ4VHlUjC9nGEFZlq8HuGBGQbTZT58ohuaAQJjNxTvgesO7YITFH9cAPucqpUs6xa42+zU4BEPjfW5CA+x4unJ0rIKvfSBcciV5Qzjg+b15VPgxB/M+DG+3UYXJMWdeaTLnPcnkxqYZWRGQaKouhsMD0bheOaQxm0VaZ59astloBCTTiWZP3ySkXBAZBHsnE1QSImiBaJToMEmPpURMDS3c9tutNEWTE8ilzvU5VsUCQlFn+kuc5CLkbonu/E2p/6iBq5uqp76guaKIUY+TcfykEIfcCC0c3nqU8/XAxreUm6mPjI8G+7JhzeORQopezuGOthOXmnJMgrXr/kkp7RFyBawTHJV5QAtKnyz9Baelwp38J1fx90/vmocsKMMMa3UzMmlwx4q/XGiGNS1MTKdQh+w2IJ2GlGFsit4+gngGCyZ2eXIpll4lqcfL5kxnzrtR1LoHWogdwYA/VFt6rxMjJLh/KA7Tlu1cTduiJyCTJjl9upkDmkOx8u2lADumRf80HlUchrj2DToEj3kKjryi2nIupTKeJxts+058YFzdIFiIYFlyUq3V04lgzDIcaBMAGAJZTTvm/jUaZf8uzITCwze2h5hYpkcPxmzMCdcsecNAgd6rgABnqWA0mFmTV37IPVreNHVF6wo+MSLEhEKhVGa7vUsgUXNBtQ4ciUBfU+f0KH7nZRKMpGWJ8wtI4NJ7XTk0KTG2lVWx9GPxL36DWRiPfVHTx9C1xiaR8vwHqaPrxYLjMQgCCjQ8aBBHOA+wNgaydf+z2Hwx+ORqfiiIbGu37UCCAE+J4I+OuEidG2f8BmfShb/YBoxBVqqjBxyZc1bvc3CK+iLCdOVlAmSzh2xSFQ8DMNejifsBZSe77PBHdwQGDpMhfeZQbyN6/Nn3BKtd53O84BrJpLjtuBqGJdfkVq3M1Z6RJ2EoU/Ke65zttoABzERHKnGnZC/E0mN9y3mmur9lsuNh6TlHJ12EnB58Zip4l+er1DHFCulmLyhcR52EnXy0t6ZNJHDKs8/Z9V5IgsfpMZhQX7vpy4bm6bogzud89qkaYTXnWyDxj4Wtw6IUfBIoQuwp5uY7APgbcWJ452QhGPiteYQXjtvY3cMYnsxaJLuuk89HnMwGqZXZ0nWabMMD76/tQPxM8fbXPyTj+n2lvDqDAfErCX5UKPrXfjIr0JZhcdfBUN746UGWBvyl2BwjG39tgpiD3i8bYFSQMmAI15GGqxwtfdTiRIe2oCypIKKQeHXlgWmfV4f173aMRc7fFTrQUtg1dhn+3E07XzDaaEI9pHeAKeCdp2nx7rBZ3OvbHQaWzbo7tonPkC6pkxAV5vEsd93EN0vsu7tKRVbOEyFyQVfUf+WMr1J26SyiUFrGxbSU/JiOgkrW6Cm9CP04/fwC3xBBcRzeeNpYCpsoebRUSU/FaZyJ7NKATQwkQIvxU7g2J9BrVuz0On7ghf9jFaASzaOK8cBiNvtxpPJxnKcpOAM7S07/OCNOxVweVFGfmTBToR5QFfsPRpR0GzjcYFR5pjxNZc9jLjeJ99BkxAhA9jbSax3AJ4yC5E50YUXYa4OI3mDQy/0WAKnfTmpOqLGXKtC9zAPFdG9mOgeS53PDeXGwPOHLQBYQK7l597DZhBQR9DXJ8OLjnMykqH1XO04ohRXMpL/4Woot0kpGds/IW0jbAIyZ54Vy3STV6OtHfzAk2610Dx+oFuDAjZdU+nxu97u4FFCAW4nMG31uLHcEZSMWEppqkxfg6/j6AsCVFELHxJ1nz/PyFSJXOkPtRhUFhpw0eHwR1qpchHYQzEUXw834C+ltRfgGTKRbCINtkVLIVqsbSdzqm+BlI+Yja3khqahRrEs+9WK4ohDUS+7LyG1HaS6WLYlKeg9R3CwC/VuGPl2G2k7+khzS92DtYhSaV1HuXQl9D9OBUTsKffh58raHSbEtfh8XZeq85SrHJyFmwWNr8C2eS5H2afcFPCeXO0zjhXzPeHhVm3LQNMvjh+wU8cLeJDCoO+mMzEiXKoY74NddABAZ7+jcEKNGybH2cYc/dDHt+jQ8aBBLCA+wNhIjQFN290lG9YcBKkYXMXTdAZL7B1k9adBgvxVdW4exp1aW9o5+yh3uz4jLuMLNrRueYY7A+TRhC+sKScimQhsiznGElfOpUpl28l8Thc8VrHNOB20CfDV+WQxIFFf8lBFwl+koEszA7r+gFpGVDod5pHcm4/bBErIavBPxUPbNyPleW5ENLVxSnP7k0ByGb8XBrs7R7cloEW5hTKjKenb1mSmw3qlY4/TYGlGZdxo236erNatbM4mKaL/s2IS9R0fAUqfkbi7DVCQdPDmwRSBLf92KhuA2fbX3RCEnW0/XKvYJYauXSnjafgHRhz82+hopQdV7Zlgh8pXzDkA1vsCcKgK553INspPy/WQYAu6F7o9HUgvKR7S+RVTvH5l8M45qLGOdqi6UnkM9CPgsJwElHbVRqhFoobiJOsMFCiv2BuEsSO/wHtOsuFxEAduZhs2Wrfyh210SCWsofEPfUTmBMCFavgN6lIVsvGwG0/eLT834qzXPAoD9Oh+9/ULjQcLQ6WUI+BNmCPjahQMP9Vfbwj69TD81p8nKwz9j3lhUeRM7p+JBObW50tFn9O8Urdl7Sp3ggBBeO0rTT+kDQ1HdLPZj2GR76iV2YFvjgcR0bWpFAtxDj9pwiEWu5Ol4Ms9b+iae2AETZGVthlyutV8sgjqOLHu2jTomLA3AuEAuXd2fiXpSpKsxLLVbOYrUGJNTrbhbG9zP99vH3FE9JlUF0T7Gv7Z/4f8BokELDgCGFH3zN86WgF7L3xtrLab0jsZawMFBdq4wjTmZ2eeSV2cL+KBbPnAZ75e5lGXLP1CxDjAxrPnoj+7rrpx2BYr3z6CINL6I0rqTtUDnywfJJxYRBMRZIHjdlrCp5wtEXG8C5odZk80iQy2ipxddU1GoA9YcoL6ROUe0tY8DRFTcYdUYNIbdsf9zpXc9mYre8qel7eMVPHKfmylL1LZpP+kko2d36UklW1iTz+L3AlOPPVNzQD3xmv243MSgaXg604F81j2hnsiKrmhWxijqNzenW9Kr5VmYNWjBieJlbbHEc03kahjFsDhoIV9jzj38DpSYoqN1Okjiyt+VFFYJloCP2Q4d5uvTRFwgprBmPgQjEIBPZcy66cRo6xMEmh26W5EtFs2MOZRWBnjpjKpFnX9yhKIYQxD9oF1dZSOifegOCj8JTSmGvTXyx97OgqNMnpx53bBHdRv2JUPDtAehlB6U7/JP7/t2RA7CWVk0Mssldi6wC1pN0GkmcmUgFgMCKtIvcVtMpcagoY/6qpkp1mFhejQ8aBBOyA+wNgLj3y68EvF3i6iwI6EAsDXVrfMmeOLROQYXr2v6ECzbIk+jn30VCa/+p/kJEuI0ZEVrY2ogsalaOqV8Ovr4QmYPPUGOyHYHEWhNmwAsJ9SNZjSOgOyFDumGwrBwCedn3n89Lk0aIOQy8hWlQwidtCES5Lwm5LFvpTDZ3b6DXn+w/iSny5oV8nJbXr9hJRSMBrs0E3MhjZbqdjrajIwxrczwnwYBqPiX5jpzJUfoaRlFIkkHojrWKWifDjjV8rcCfkHvBD8eqT+6a06ydvZkEYk+PHb9OMJ0LCRbC5hfrZOVCJYQjaNVCeBQWe6y59r8AtqWPzrCrR6hg8HmYIBR+EK3HxYPeEEpFigaqszkvOf+Lozf8/W65Tbgs+4vnZHdQH7VU71iQd5VXJ4RDd48D+GtQIdvqltiketTNgLTX4yWEhA924OdxUTLAvDKJupCyyJ6Fw4avNUSEZHqeNlI/kGeDQK2BNXPGsd+ai49RB/aoLLyBTCmNd+4pk4UVEgDX+gqz+kZZlnfibpLw3vlY/eSOqFgB24tw6+M1RNdL+N4btiCbtz+DaUqesC576fIUjE+Kzo+RPNjf2KHFmnpx7aGR7zEv8s2zeHgl9WwU3sOhSPPFLcT7szJYajBoPULhA77OJUrqMWEfXPrBc5OwGYdeWv2fHpIHtaggPopRLGxdwATSOiLvfgC93zAM+Nhq6cO03vxxIxowiPQHY97n72rzhhO4vp1vE8FWZrZ59RonO6evnEpktSN2SanjyEIZ/EHTmP8yTxA+jUGj8CxzWnTavTxe9qlcHpT7doGP4uLo/2DpuYjkWOCqrdExaLCi0mMEQ/TnQHDlsRSsOZiL7YQ1fYB+B6Jgq/03paQz0Up0WdXcsiVRtHjbS8XzQOaUTGhBiXeHzJ8vYlCNCwWuom9uLWsomHJ81VMG7zdA2m/iHWArxzytrbX5EtP8snYdkPU2dQznITaWiteZJNOOwrTbGGkRTxE/lj0SWja7lZwKk42do4ee86CeuwzppRxvhEDq75aQR7Xtel9fWn5L/9OOIhXUtRO4LxUz+mLbH5f7Ks+DbHeKOFrRbpffuQ/hT3H+5Cb+wIlS9NhGofaD/P8YSO2e1qIkqP30TLojT4KimLn3AtBU+UnyNecusDHba12rgTxqDUJ9H5dI9AQMjqQ+dCLn7NfPCMGJIk3TmAna9oUmiuNZvPFu9IiUhPa8xyn4MwYNWC7xW3Jzpk1v3WQh9DsEW8eqFsELIJjb07D11qi03Bo8bMJIoYdOY19OjQ8aBBSeA+wNhGwdyhPMfzTshoTs5VGAvGEFbgsFqZu6wW+U0YcR3jEvmEk1YfitkOYPfftvnhwAuFldvfDDURYDtSFMcUnltWWvnlT8tWmwu8cy1+c+rhAfeoO0GGmvbSlg2UyJEW5OIoulqlZ5NqiBZROjU+OAFyOEDV7EgCKP1SiOnt3WFeYsipr1LKIg5663SvxR/VqWjBncD/oJ+z9OGKlv3zeKd4yVrocPqJuqp3PBZdW+NkeqPhNHFu4lzfyfVyuRowTjO0CJSix22Hfh3Zf2eW9+SxWvnKGMMCsC/XFqpxjSkudTGwx0kBH6ASrBdosJW3rbXPAN5TdmNgKTLZxjAOesN43U0Xa8AZdrJfA6xT0slClDSk6jwjsGJryWAOh1/9ppugHkvSMHuj5B9tioVrlE1XD3DGCyfcpoHajp6EVh0f2ENXGMf9KUiSkUlGvorj25sTtEGh+amLbT3HA9Ya+E4dtiayDx0f+JejPC7W33a5XWsExzAp/eXay+Bw03wNPCWLRmCPwZ+MrRtaLZ/LLKi1gLPmaNvx4K4l3Ro7REg6eKlIkGoeVGF6sUqcc9deta66RmnXO0wyIwS1Wb/l1tSnb1c+mwh2YoBdnHyYudVECBlKINbiUnwbKX9maGxGy37IdeIual+IvxkgPq2YSZU27sgNEg5NXSlmwv1Rjws1avxugz/6aRzUnEM4SScksE9JsxJZ+aBNacCYQiHtXCTCcSNV5ziOxGLNpx+N4stwpI8fkbrL12m9ArrtR9Ov+itoGfpsybHYbtcqA8mv9fzBpofI1+ktdy1HwV1N5l2ZPSlZVj2S1CWDR3tZAr/ct/OKQIL4ZPjGjB6n0TLRFHPYG6c8I5VEFTTNrWbl5hoROPDRpfo5J9ViUEfXpc0IRmxGPUt8yoZ27j0NE9f/OsZtook1wRylpbgGov1mTZNYlY79YgKvYNfUD0a1cfSU0K0S37P5szULV4rHjzWvUCCUsELJhxdUL4InXYYUn5XFBnDZIn9Qyg3qqcBbCjsM0ieMiKQ1JXyTRlQFGYdw+YFzlBHeSutK3tTXtB18cmcDNuugcapmUfUzIxiILFiLVxqVXHbH06Fxjb0oQfaJeEIIcC1+1H4QXvFkii24hTmEvLD9DDfKsm1mmPMLQo+CphGL9z69Rapq1yoRRbd6fISzFJSAQsJTVMNW+XKaLSt9Ksk6zzEM3xZJrEvWQ8P3vWtfe8PhTMpHuNeWKXrHqB98mS09n+9QxSOL/XHykXtwmAVbP5Zc64bb5YokhP6qvijQ8aBBWSA+wNgbWobIwEgNhjCBsOoc+gfz5EMsBWjYv6ihN2TCC5aT3mYzBwHWafEmtakiGuktpmVv2jIX/PDB5l/khJMMmN9rBDBoaReBUyS+Qd75UC40lowWNZp/nZTGbjlFuRoMlZ1xdIKFZ+FaHilBliym0G1Nzbvyw2BiMgx0lpgIho0sLPQWvfDEgsC/4PzpukDeepR4UTnqPy8Q7bEUlDrh6ReQKdbFvnHEc544T6Y2BXBMs16+SPSXIH6GdObvBnOAJaMAaJqtVMXWfVGUnUAhpWkHquzDuddmPS+NqbDH7fcRA2amVCJXBYWnzRJ/JoGDrPIxkpjzWK7dOiCZvTmgC7Lq0Kxta3v0WFrLNkP+kGooFbDmriSfROQZ/PVMpXqF54yRvmYEsI9hBnu3mRE48mYrWJlnzl0jIjYOf9LEuCDoV7cjW/5Jgz7NplfMbcV15FNmeLdycsJB2yoqvyrxhJuwkuUiApVVfDQfL0dsZjyR5a6nkoGftsEevpZfS4RrLqsWtK8rg7SlGHsohT2qFLeFOUYVv/tXZvKpbuKhClwA8VQgOIsg6TIQhbf9jSMXEQ9Jx6aA7HTin18fien0ixY+DXvrdd5JvWBGesK/4JTdvgHFGEGnvy2H0HjxFbQG4MoA0xUHy5TJr5JBRdn1FIifLtS40Ov5oCEanQUz2WodUtfI717goAzIkL8Sma8RULA5Agg1JHgLov61UAmxAeZi/o0e88fxZrVF65ugIKGRqmB83leMQKVVwsrbfUY9iRcIb2Wd5I2E5BTypu/+OkoV26JZAYEOyz5BvHG7SAHFCRSmuRxZ0z39HvgOYc3TB1+EA9waAFTFu6XGQCMV6cZYQDtd9lUWaDskvOOmKPIwqgPSsW9JfPknK4qYAs942wdlMMirvF1CCUvHPeqmBs6/tojVevmGbzZHAL2egMe0tEzd6ydV/6vqEx/tkWNd4TvHoLRUm+fIHZtwFELgXdAVi9zZq7X4tcPZhVWJyt3AleX3rrT5Is3J0N5i9tkLDFwmm0+1nC1Ow8Wsl4UYvl5AwR6DkqllJg/ShrQWgn9PpYPblPaXpN7BPyFAK7xXqVWRpn5kU3QiUDDc4ZMepCdY+pl65kFm4q7DtBCY+dATzmtAJf+R4b/AZexOxanBuvuU1MUnz4AMvN+9lnE7XfFvdoZxQHKJuDl7+m1lIOt/0QkxNLZJnn8ihbmDMASBQqFZKia2Ile0iFZd2PhuTl6E0mlDVSrRdm6w5EI2VsYCR8orpfg09OLKVhbe6jt+p6jQ8aBBZ+A+wNhGqiZRwjbRUoJbYUUTwHLIMSLSNDxoZu7lkDYrIXPrgv5zXSJSXU+nJrViJFH7FlokOYB3zlnjKqlFPYTlWZv2lE0gVm9IISQxrXCgJnO+j+DkpC9sVDjfl4ruPkn8jqbmAE2fe2qkfHhAOf86OoJyfappyUMXJMTkDJGNQC7XAim/GpuK+p7OeRGxMZBqyCkMEVulbPj8zG2CJQp86sRQQz2/LpyzJDrPFKfcHdApHBBLrciiPw4pSCmaxBllLhsIsbxRqLLSseQyDHyT0tBXPTEaKVvaaaZWwqmZzDhCG6LESYpP75zKU9Bk3dy64SlTSUkgLhDMtwL8h2YdjYx4oIHgO6KwzrTAmAUSyWiBCIMl3WiKycRo3dJgMk0fd5B4MCCyVvIbGdaItP2EJcwMsQNmjl8I5oLdR2wmnNgZ2Btu1tjFUy9J3XwrGLp//8y2hFHWN0ZwVC01SonF5pANzV9Z7TVJpXy4yCXyBrjJidoxwZZwov9ALQsJjlukvuUu/DN88SjEI8fFU+fCdlNocxXuhBQCvI3NGnla/yLS5+AZadeIl8AjJSNy430HRVyDA0b8xvVRRm3CGBnBk4V+StRRljAbk/RghDRFXGASmNHksUWue47Ey3WAp13LmPIa1dd5cW5IVoubjTpndUKX2JagE8xdmfMLmO+xqPhv8F/jYyNcwSt7breTbxWulE/A+fGFmlT84maJdSwZr6EkqMdWMYEFdQePwlmpEadpr1JhOdXCuZAM5WyybF9e2cXJ7eiCBM7l16WcrX5qQJmsHat1O2+IGufw2bCL6lcZMC3/76Xh1mpOSYqf+3w89yWvJJMLUlKKk63LlCGs+9gYGsVYVJ9FcgPO8KAvax9sTOnr4/51MqjMVPafDznV5cu+VpZhEaXRz1JRcRLY330xng5djXmZ2wJgCktwhlSzSujsfdMyRpgekP0dIF5IRsxRTrKfOPs+N8JO7VBi4jnDxKVMMTm3Awsb1vzEcJOrTv3fYTLsUhmPEzXHK5vI28uPV/IYkGSsxixGnFtouxpSQ76UUVMC7SYNMw6/A9LknSbjEiTiL8nSjE9bUM24ubKjM0+A8s3J6knL01M/t81ZXT71INgwWIXIJu4tLpI2L49zp5c1l7pVMErLqvfImkA5ieXmwG9Mbu9wi15vRy00rt5EqaOGKVC8AmH/7VBwH6T9ftXOOZJjepNIQB6nvONC9ueS6U0Eo/mnTJ7LpPT7HiZsMz91Y3smij3HDZM2fnLjuiCoXibHLRhT5YnFWijQ8aBBduA+wNgPs8NEeWPWlWhMxucGKT8FRfdN5qBVprbo9Huk4Jt38hclshLaeOhQ2vlDqVCaBOQqqqmylSBf7LAMy6PYB2a+6QUxVvXsKWG8nNimRS/yNEGLk8c8dQ77uJYEFGntZNvlB+J4ri2BO6FEvfa8a+cHKOOQYdUmY3gyNehVj6eedz6Y6EFKVco5oeuHxfJL65ZmTMJ2J/Z/vxESeT8yGuR0bCcjEnswIEtjqzxBbqOlYi0syHFL1gakOYahJk1wFJYOKWRL5esLaTasp4WjkEjUMoXrh/8z8ZpIMHsvl0KfHu8A7vmZhSV+UQXoOEUvhgFNOthUgv+Hn1sEznGofOwAQiFzMkQEOV19IHI6eD+FLZAkazS/9ri3yP7D6v9o5m4punvY6CDRsMnutUFBa/A24G2EfZBCZsaWUZar9MTwWAuSZthzWTI5VpmrmeVm77Wr4cuTCmDTtrluT7XtkIwj6zw+XvPX1fN0bhw5ifumKam24/84mKUSsV8w+k5HBF2x33x21q+gaQ3KEsOqggYvCymkn2yfksiXqfQxmG24BkpeDoZl6+NpoTH/n0bsH5IxmmeVkCGeDa1JcnBUbePqd7jIgVbArWXrULOytc3ZtfzYOlIdxPgN611lspInfp8cmkCX+iMP//Jg12ZwC7/2Gbgf33aZt4sd5+HqP24289JSr0MxnfsG1G+8Wo3eIBFBIDSQEawF6Q0ittGcWr+5aYoxgsJexh5aackfLeuwluwFVhAEPrsn8vlMF89L/+OPYb04vxBkjgVo/bJe36kAI1aBeHHnvqmDZPz3F6kVu4KTri02YLSZZsPqeTuyU5VZCSMF66KGM24jb+NSD6qYBM/y6fD94r+z39y5GBScp/3UqI0LfbQexsKdMR8E3vguUx8hwPspOnTTwft/40mtMYpFPWZLubuvuqmdlnNSWMrY82ZMfUCMISoAWY7LcqIiFS9ot/oQrPHRMLhWdMnqJiwfUSEINFSOGDIfvh+LFsHp/Tk1vBbjpYBtgGk+kamWNepZjIUOXw9sEeqPU4roq3VzweL7szxYpHu4YaJuL80TUXSeMOEzY6g2kQGQmvzbgtm6jS/vr3+bGrEE++dpgHGOqmiw+UUdBN4fPjjQIHPtLesdj872BgEMiTKjU0z/8dz71bwJKnYNJI38PS+VmstJW4eIe7c6vqfqGqFb+szCiQdroy4BTSo0UYatpUK/Nsd76duq4+kJOJEfIRbgQmK4hSU1/UG3a8UAezx7DydmUDPOXoaOCfPUHjseImjQ8aBBhiA+wNgaamkW1tZbHUAuB6UvObqFK8zMuloNqCd0hYgV8jlGibZLDve1jZPv5CfU5RIgN8HzkofV7WsVA85V8Gd9VWDsrir6ujC07ajtRyeYBYQMpLbDGFD8qxT1YK2vcCRsazftqdLweFo17ymGPU2lSCRkN6eorQl8JBlC+BOLJI0fFesgZvMuK3mlaexs8hx+G1h5yHRTx4ShxPOzz0tsR3vY/3Fyodjr/I7okGAG33rgSrzk1HejBiwe2WI29zwZu1+Veo9KlFiM1lkpAFqL29Opz0JK1I0NvFPTNLWrW+dCU1LNi03UFl4f8JbuVEN7bfJUumWHaAYxh/Y6c580eDZnXvhUDGG12kpcN8p6UB1+cICZwkDr+dn46BcYz9RH+XUyrtvPudtNzZlc8N7MaKo3t/J3rLtxI0dth7HZkYPsmAwBkv3VQCunGsOSt8+6p1WiNSb77uEWWoNGKrITaSRdspnQDuS5u2lwnvptx6ig206Z3+cuD+5K7Gca/oOE/iVP9fTa4YBUf8DXh81EhFVu/0+owR4ILZ4tnSh/GqwIjBBRbzAXc625f7bhWFiJvjyTgi4h0IGIby1JYlWKXZIFOlRIsm62T4UdhJe7OcoQGlZNCEC2xRFoUQ82B2gYDU1EGRWXup6Vqwnc0X3+J9HpAi4RG+Km7Fr97N8NH760QCqAbGP4bchZ//9HB925ihYc5R2GmIACTZeLns+Fx90x4F+mDd/Cv89JpJyouixfhqcrsBxDNXR5+0joYhVIjXVQGIYwl6d5IgSr59SBwGBnJhGCHQG5/KvvaeNEpiNGD2OoUAV1OGXJSZtBZqqUulHOZP56J+CrB6o59BfEDoTYTYFKTnghwb9/d26wGoYp0ufN0gf4/On5ks0YhS99YckWjtkHz7H4FYLzgxDFAHtRhmkAqTyn94BKxQhys0FVdtHt8tk7UxoSLUirwvNuqnnzvIrhVqa5XgaEi+7dtKe/DYAT8EF4Oln833WzSbadRVTnHF0ehPHemYRVSUF/GqH0pIdY7VZya3hjYepztD0guTK8REap3PnkX0UhltBhQ7Ahu/GU/0uQ9C+1E+wWJC9QcdK/ElNcou4SbTOxPGN/j8qw1n3+suoXyXO3ZYcPciw6WfSHotfPHFQr/lF7i8J2yUHDmZ7/Z+DtDofhhFki2alsYNCRhiJ+ol179tPpxbz3Yai4OSwkuM2kPqHS6AL1Ah5zIVd8O/NSiiH6AGVSrc7BQtzS6MRgJmDMmEME5Qv7gKPjN45G9UkNx/cttyjQ8aBBlSA+wNhHFUPG/ihl54KLagxAb57YwhVku6d+3PTSwmk0suLZrY+pLQs/9Lg//uGMj1+1TUgMSuWgm/ubwO4o+mbrKN8MiafpFuD2E8zlCkN6QOfMu7pv03a8PoeS7PjJCwRz77EVNI7QFlnTL6jG4zaHHqGADQtlHBfW8tsoomwQUXLqaTXPsy2oqSQy6L071odlfpRQF9DfDpStGrp+8w2n4BLrzhKNybe9TkjTk50/k4CtO4mq92RzY/7J5q5i7gHVvZRMwepAxmEQIrxo4hqEugom251fWMrdYNjBELIjLc++6juHr6Pt2g44p+SBAtwSwsXWLgzErqDAd3cGlIyGtmcUPdZCyYOUAnL02b6RmYh7ZpV7Aatb5kSwgcIh3OJ5BV+/85hvH93Ibj4O71Yh3vJ2z6MBaTrxx07SzNrHEWl5GAt6GMf1//mSz4hWb1+MqFM1/ZF+SMnNMk4AS6knyyYuPpeStGbEf1BR2iUH0M8PZ8s5ZHSKQC2IK+gin2LGkGI6zqtiJOXtlBY6DlsajUpRhITeuPC0+4uBHL3ECSONM1B2LbjnM1Ig3Hayd8viB9+O6HxxOlqfie5O65XUjydmxtmH0teX9dILPPC7J+r/JpmggVN0KgoTB+E/hQKcEJ3U3dNjzbp5RNoXL5olK3lc8GXSQvNSHsgJVSSp5hyT+m6VdV5h3l5rSilNrpFmfE0q79ctHRjanog2WUMFGME3x3rIAcCatMid2uv3yoTGPFesFALlz+7rhDyQ6a1z+k0d4ZaJ+I8B427u5suLla+B11d2QJhrSCicnjKp6vqMKrkFmZH6IXFzV0+3TaQdqpDYX7lssi+GhClU/CyXFhkXr1E0slZ9zG8NRk2cEENMjPvBB1yuRYRz+nLGWUT+NzhFg8gzx+NHtszcI8/btBWemcPIpCnYEjX4SyYHvqaNEesjsXI7jdYeGVjsU8yluag+vj+12YWbB7KD0PgfvCsqnfrjBy+2MTDP79jCvQV1jzaaJ+R4VZ0NaLBCO+/M/LYKiOA+Q+TZJgqQvuUSDxC4VhMSYtaX/EOipedNUaOnwSfPL+4ohbqb0+zxeV4xNCZfM+7u9LgEngByXuWlUHWBLvIS0IZ4dwHELJVM6A1WnsohVRPKsvJsABETZMX1v2YgVNR2aIRBtKuw8cX9rd2Zbu++65F+uhdji7v2+sFKA03U6vdY886KxL7QQLp/21Z61bGrV7pxl0LH3TL0E7JIIdlzTTATAGFh5aEsIRUCv3xq/bvSBabOVxDOi4SnLCjQ8aBBpCA+wNgbgrW7gZ2+Lf9SCUdlI73YPoz5RsjWvEpBfSmqXlFRENOrLmQbvLRHrIHrpcLvff3m3UjJNJPxmOKHIamsNvJExkKOlDmirH8UskJoeN+bNll2cfQTFfR6g7uZo1m8lc10f/BXzS8eUrv0E3Cn6omCY7WawXL49CctRR+wX3pU9vERsknBLvz9KS+iwD+rfPUiJqOKZ7jkq3VGcceBB4PTMBlZKMMSP9auM+TODtpjMPv60lWodU6Ss54/k9jx8Mb3AbmsXR4cvzr/vB+mFAqMlhs/gXJrLSQmOyNrhwLj3ZD0ESGbBL+HN1kVVlmVqNN6bSbqI05+9FXv9VDyrevn7VPrGMbME7z0dnL4awYdjryskbN4lrOEMahXdziIM8XpaHuPC8woLV9gRhetJfR8lGf9hRGYJxgb/mYvJWsEmEbmUjqT33yNsn/PT/p0eGmsQJ4d7V8aIiIkk+ryMD0vDfVSQmKzjOto6jUUchVfnn4Ybvi68SpNK2oiSO89oXN1SJkHAQfUoQpd8RiJdqCAuqmQklC/84oBWQEbbHKgTHvrsWRIw0FNG18LAH9wuU8UIA+rdVCIVCjmE1jVxTQOIBuUIrcBK4S5XB6+jgIY7SYVVUJvPAGL1mjo96f883g8khG2QcTuIzIEmwm49+GQINvvnHAvbpTEe+76/KUwjXlYI07gI9vYnKfc1sWM6chf6TcUOuEMJe5dh9vaccZ3r59BsZ9UcGH8axmcIKUgyvbzsFbzngo2bcS/XAE4qgGC9Q5h8KBG3i8wGCzwgjQsdlIREhS7a6wnKo5Ly7+2uHk8KBsemIniWOOSfm6m8pSPnF+X82CnAvJKJahBq9zYG4Mv/OJ0ia06SEIJu8Zv4BHdSmx4v6GCLma7ZtT7Fq6NtNIZzOmwZl1G79sJRmOHbxCSKH1I2qC509/pY79SWFGqZF33kxz0J+ZfODxwYvv8LmyLsaWUHgqR6KpDxV6Oq5EzGZz6xe40IWO7RX+EriQ7yOmy/9oNFF9IYgUbxmd7GWsvIlM9WJ+yfKp038vVrd9NT1Ppp96aydKAU22iDldKH3fLzEobq+xGwUsKW+ePKADinAcSl7ruYBSHwmYYxrW+u8eerqmnqCQ2SrOqEoV43DQ8cbv/SFAJqhsRgohaWrQpX8ewb8Fpw3PPak1Fvt7pPAhUIi3eDDvb+s4SG/JEeIUDYhq9oaWcVMe5TMMSdWEXHN1LWhxWZdIufqJQmiV/ep5M3E5pWBQrQLEfHWs8NhzQEwYCXg71N1BOLOjQ8aBBsyA+wNhG5t0PgdjgiympbqKHz+VhEzQHXjoOvI+5iyX/Rht6kddp80hRmDpVcHXKjDXFlIog3PYJ/KxNfTXHtBVTHFUVO3rDH8KOgXCc0ciFJnw1Jbb8j6B9g0P+h1ruMaKLQAJ7V/N0h0fyHUxBEeBinuF/dddd6T5+FpZKBsLMHVkEW+P2v2OmclPnfQOgyiVf/wBBCoFBJ1wga6XzVecvP1KuDbRLmTHZ/y3tuBYILDBAcRYGjMq3eCV+uZ+gZIQKQORBBpz637Ft0vAvQwMzROEx8HCDJWmhtFQ6SlNmcomzo2HOncZoT9b9wAA+OxfxAgl+Baq3j6pBZeUSr2nFwNBD7ub6wPtNS6wK14yK6iVkM4ZbvBOmhPKySL1j3VAY4IVmlNOyGZeLZBs/y9nggwoMkT7nNm9Kh4O4/rMO1U/vWBusrsS30XF2Ffkv2SrJ9bAmLCNZq81PTgxVJWawFMwRoQF1wIWoq2i7T2XyspoA+KvgAYFcgiNMSJOhXrZQZ4OYOWte3idQMdRK8X0IYM8Zn3aUFCnlbEG1hQF8GltIK0QNpB9IFthMtFp19pXFHdhIGlPl/ls2CwyhYXMay5R9fqEVEcLCj6uYdbIuDyEtt1OWpj42c3VBbUrzLKBd5wXJiPlbwKZ10spMvr3sbUbDeW4sUGkL6OIIgnbYQzJ6ii5S+AkVwBSKpsAHZx2bjO9iZY6B56Rq50dBiOuedfGAjgx5xHpiaPZzE0bChRU78ij7YvUs0EZ+YATZ+AZja8w7rLupY/8SMjV4uDbZ0IPSDkkqVdcRgcgsc0bi7sryLPY6WEPegB9aWxBW5e9E0Tg0QYfKweRijx1cpHv/a7fYSIP1DyQZVonpopz/3jzhvpoSzEhuN7MuuHT9Hj/ZaMeLOcysXmG6twW42AeFosfM5tBNpWJztj8iCidUtzR0OmAWo9XUaDxBqGbUvdKrO2pF22TfFDl7+BwTvUNaQx7KxWyqiD9E2+ZvrEbBcrLF8E79vrvui6yali7O+iT8ZEjtzzfKpS3Wt+Z0qMzj2F3PlwxaP/UNDgBuW6NnoZczukohePOat4jy0fQmTi6ifNocW5e7GBAcn1zlQCRuaf6k2obPM6+T1bGnobbxvMkYXXCN8WgpkB1TdQn1eVHwlVj6CVEZHmDi0HlApqwtW/16hfn9pskLkVv3KBc5lG3otLN6u/EEy0byLVEGQzZ+dM85eKG49uteuxk/WQ4SDHGkABUXUxbzfTx3dY0P5WTW++pgVcdT6ksEmoiEc4J+SGjQ8aBBwiA+wNgO2Q0ht7e93cXbxgAkHeAPCse3hFVT278ul+lGQD8RRrnQfMHibejUPcNwrOykfUUeL4i4V7hekazV/fVHxXZWwGaG36qarZB6eVf0owY8lCyKorqgp/4hoGWIxCxhW0wyefaPTqsqkxAUb3gHgHZ5HLiMlToKcNMkKG8A8NfePVI7J0PgRX2ia0an0EtPgCcIa45BJJ7otQHL5mO1n9Hg71xesm4QTvbG00BbGHgjhepgvf841WiipnUP3nrD5iWG05OFAqawEdtYHr6OyiLXv3mUQYwPXM8hBsEwTgNQxG8Y10wu8xJa3oUnSpjnhHs79aP+HKARPSXI+/udZXHG7e26BDQF62TamKw/QsJNud9rGLpNx3x2gzwLa6G70/9NM7LMb2U1MOH0lc9NimdHFwQQs+WG5k4pj0qT9nd5GAo8HGqqibo768b+uvPMp+y57h2f5R6xklO4b72iGBZYliyVUx7+0Z+wEFQJJeEXpfmgCBa4qHl3Gv/ou7v+9V3g4oRYevaHxJ4pTPQDkj0n60u3f09myF0/Qn1IQiqIWyFbpuyBA2TaVEpsm+Cm/VK1lxfaGCRGOOMMTLEkztuZD/LsV5k+h/IFukrY9RoRZQ3jq/Rnl5Mfp7pGMY2xSu8ARonD8V2+YH8z5MWEfViXral3oKEj5nw0a5IC0IRv42eK9S8NZbD9kPkYVdVntsPeU24L55USIs5tiofbmIpMYKiAYMRywIR+HCqltReZ0cWI8JZdXKux//9QKtIiSXJ3jaGHFESFCf13zyf4Z50Yua5yukH2w3vKjNFKE+bRAl4Szc5xD24AUbVgEsSkPrj3c06tuwvHEH1oP8ohhebYC0T6P/1eUfRz/dr4IQpmvL4Yq3v3J1G8FLB5EnXk+WUSSqVBA7WBihfombRADd8bRqyzRlhA3QSDl+TEzlMgVhuW0n7aUyg6OVfhM7BPh9yPPbgyuDklIuBwEvEktBW8jO6Qzm09llt4u2QI9jocAK7jHNQa9Bcje5xl8fIyOLv9IYHwP1AuprUaEhjx7oTnmbkZjx5UYcIOJeX1ZZkK2ELWDVPfy56z6Nap4JLy+OD6BC0pH9Bx6Aun0HmMob37NIqRNFDulTUJnkbXrHwHaihdL/ia7NzLWk93WwIC9iCibAYrblrDQ8mB2Xcnb2bC4BV995Se80j7gJXYIIKYHHscDt5TsfaqdFD7dZgadHxPdt968fnzIhEdoFrnREH7FNY8bL7N47oCYPP/+kPKLWOXSXEt9cuPV2mpQkmFtqjQ8aBB0SA+wNhGwa9yNkn+Ij83BrZeLpp4FB6paS4HaIL1yFOypSIDCJqUCQuhnxoOt9OKgzwdVUXvIlkL2XLWCmNQ+F77otl8I9Cz82O7br5k4cEXBphwS/hM6SbvDeqiQaOtwVgUIVe6cf/CTRxaMiJFmWLomx1BrdbwnehTRVE0cPAnfKcWkvkKmgbTQUYptf/P/U/QmvCNVNQ6ICqiDnn6Ss0HrSZYRF+c5lfos6LNhxWaPjoXpWAjfCzGR2CwNjuT3sgeinHS8lIiS1VtGnNvAueLU6r9C11iNIezb2cS1i/87tlIOSinh8r7lpIKBFbRr1J/bGALlntYmwRJyrn7CpRvkFtHb0SATOeY1KXRzKOUZrNi3IUAd3aveAkYYEo7pKMZ53Olm0E9VlZFxHOJ+yO+BQqHvSLdyOqvJgpcxZ/mvhp9mBphnE/ex4mFNHPizC39+BJzwLy7OKNbbjlZgp7NGM/d9zk7+fXuCLua03PthjrDqd4X8BFX4jtOAIPENJ85vjDz40Ca/nHHXsKRE11wtKRtdJ9nXBGDe3/Ky4nO0TRS2rgPZrrAs0mE44pZfdmLEGVBtQviRHIaM+9x3sgpz0gIislfBHCIu901TR3zB3AnHDkxWr0PuAlNc2PMQ8/4LeFEEGP5T/86NFvYm+YGIuLyCBl064kpVZqa8mSPx31f9BQH+V3134eLSoZ0Y7nA8EKBhu1Ugk6YePtAwkl7QP/dEk/damY0gf8MfLo0N9CKy7U9IBslTOlmWYpiwDxttEtjx48dY9DObkXIguc0NMCu8PCMDx7DXFQSFIXrId/2IgDdsXamlsjwwXDKKAKsFNJYCtjSF5JF/58/w9HbM0jYQMH2u2ArbmW0MlMNoEsZoTn4r2B0N+8MWYL1QxKTN/NsvN1A+atNOxzMMWv3uxzwwoOlMPMbTYBDRIegKk5f1LsulBYTweS3Tzu6jgWPUDAQASeQwVr6x1VCRAk9WogmWU6ikIRFSSEVZvL8bLW/1FBpNvJNGXmSaKqivYpOK0QgO86c8fEjeP9+BLCQlIR0rOfNXz1Gy7OR8PzRFX1KQR7+qZUGJyzJ42j+Tw4SNIHVAeFCOVbwYyRa9+E7JGnbwjm5tBJY6xy9NI2uS7FJjWdVDCPMznygXm77VDTOh+HjeEzzJ9kaaw2srhlBSzmhh08KhaJFX4ffxffuZ5lR0z3ils2sk3kFm48ybqTA8H9VirAzGHYyVyxglkxl/0SAg3S6+TxYKHSE1PXJCnO2YOtMK5VFXYZ3LMfcfKRjFw=","3","blob:https://test12345.live/8c42149e-7116-4390-96d8-89b80bb120e6"
"","","","","","survey-text","20","70391","0.0-20.0","xc97rju1m585y5b","conditionB","21232","","","{""Q0"":""jjjj""}","",""
