"success","timeout","failed_images","failed_audio","failed_video","trial_type","trial_index","time_elapsed","internal_node_id","subject","condition","rt","device_id","stimulus","response","estimated_stimulus_onset"
"true","false","[]","[]","[]","preload","0","35","0.0-0.0","9qa7owzvhyosjmf","conditionB","","","","",""
"true","","","","","fullscreen","1","2929","0.0-1.0","9qa7owzvhyosjmf","conditionB","1887","","","",""
"","","","","","initialize-microphone","2","6183","0.0-2.0","9qa7owzvhyosjmf","conditionB","","30dd22ab2b37206c966e6cc1697da94970f6bc28a96247bad18d1b2142137ac5","","",""
"","","","","","image-button-response","3","7987","0.0-3.0","9qa7owzvhyosjmf","conditionB","null","","[]","null",""
"","","","","","image-button-response","4","12502","0.0-4.0","9qa7owzvhyosjmf","conditionB","null","","[""images/celebrities/1.png""]","null",""
"","","","","","image-button-response","5","15214","0.0-5.0","9qa7owzvhyosjmf","conditionB","null","","[]","null",""
"","","","","","image-button-response","6","17030","0.0-6.0","9qa7owzvhyosjmf","conditionB","null","","[]","null",""
"","","","","","image-button-response","7","18834","0.0-7.0","9qa7owzvhyosjmf","conditionB","null","","[]","null",""
"","","","","","image-button-response","8","23347","0.0-8.0","9qa7owzvhyosjmf","conditionB","null","","[""images/celebrities/3.png""]","null",""
"","","","","","image-button-response","9","26062","0.0-9.0","9qa7owzvhyosjmf","conditionB","null","","[]","null",""
"","","","","","image-button-response","10","27865","0.0-10.0","9qa7owzvhyosjmf","conditionB","null","","[]","null",""
"","","","","","image-button-response","11","29670","0.0-11.0","9qa7owzvhyosjmf","conditionB","null","","[]","null",""
"","","","","","image-button-response","12","34177","0.0-12.0","9qa7owzvhyosjmf","conditionB","null","","[""images/celebrities/5.png""]","null",""
"","","","","","image-button-response","13","36882","0.0-13.0","9qa7owzvhyosjmf","conditionB","null","","[]","null",""
"","","","","","image-button-response","14","38685","0.0-14.0","9qa7owzvhyosjmf","conditionB","null","","[]","null",""
"","","","","","image-button-response","15","40491","0.0-15.0","9qa7owzvhyosjmf","conditionB","null","","[]","null",""
"","","","","","image-button-response","16","44996","0.0-16.0","9qa7owzvhyosjmf","conditionB","null","","[""images/celebrities/7.png""]","null",""
"","","","","","image-button-response","17","47709","0.0-17.0","9qa7owzvhyosjmf","conditionB","null","","[]","null",""
"","","","","","image-button-response","18","49515","0.0-18.0","9qa7owzvhyosjmf","conditionB","null","","[]","null",""
"","","","","","html-audio-response","19","62210","0.0-19.0","9qa7owzvhyosjmf","conditionB","11378","","
        <p>Please sing the first few seconds of a song and click the button when you are done.</p>","GkXfo59ChoEBQveBAULygQRC84EIQoKEd2VibUKHgQRChYECGFOAZwH/////////FUmpZpkq17GDD0JATYCGQ2hyb21lV0GGQ2hyb21lFlSua7+uvdeBAXPFh8Dx+M5rqWGDgQKGhkFfT1BVU2Oik09wdXNIZWFkAQEAAIC7AAAAAADhjbWERzuAAJ+BAWJkgSAfQ7Z1Af/////////ngQCjRB6BAACA+4P9Mv0KftMUp03fQRcIAd49MUzgw2CXOo+7nBjhHhhmp4RjLoFjHr0ndED6nzSRsxrcMN/S5p4Vsl0ypwJrAkWb1lksTU+SKLoE1siMKpDSKqSzSkPVvxpsRljfUWkNZ6MiVMHk41DYRNAVq7WFgPIG2DxBgizvf1lm2cuoGKtpBhp/aDyb56XqLsLkLU0GfMkOkI6k5BjitjBC9saJW3ajeN9EfwsLz497IL62aWuRo8yvct6Pohw0YaUliEC/hTlrw4XqziJVH8YVVrKntqAAAAAAAAAAAZCKEQhDd1DdHaE9XxpJgazQhfVA6TozqbXfuzdFHEzShYYvdxjKoDX6D74cU/aUzE9hDjvEXYBrFe+1k3WePzwZJByB556z8iV/JtFw1BvsxfasPnOkvbEMIugKfONOQ0f8qwdoEmT1WFpDtO4i8z6vyzA9xDLOaZOCqcPdVynVmi6uXyLyDWBTzrle2HOeSlc/DUI2YBflbaa7Ej9xsGTu6f1mkQDLvMgBJN4u/U8R2TyVi7TFr/lYZHhyHv/1RWFyGLfFQzSa9ZZ04OpQBDvKMuyw/VBv5VTBCWsnHUbIFwTNkm/c4wAUGsgaTQ0VSVCdUzAo+UTz5ArzKwykmZkZTunjpDngCnXhQS/ueElWsInKDGEjfesr0jo6ICbDQlv/Zt8FayKT4VwV0Se895AeG1wSCSxSGIw00nPQ6bXmPfSYpD4VfCrpFe7wzmdOaZjIcPfK9RbDrU3vd6BWIdnoNo2HhLFUh0QHzmAsGZSSu3BMvGRSaecGLHoJGzUFXFx/MBl2zfTZNLmb4c+7KXCWmxtnjkkV0x731ZqzcbOZmwILwwycNjFOhPGGYNb2FaAYJoVihC35qzIoCKFGwN5J0SCwKsUcr38QOYfHLpWBzU4L1xLQew6vJRIYViFQgesBqhWj7Lw7tMagUAvGBWjoOyr0jeNFcskQLiPPFxTXsydngaJ5dhMBF1n+Gf2i+/23FRg5WUjxmMs4dOW9A0JCF83dBSFqYOmDRrwcGjVkQY+tox4o2Kakpt/F4rVuJrQ0V8TU8EaSYOr337ZimRP6F0mIcmlF4k0UnWEzyI/iDoP/UJRExMB+TmWpFnO/qb1mp27VY2BnsTdo8aftoy96RQIjcGsYoEvWnRk/hERZUc/fwbrYYk5RobRhT/UI+0bjLF7duIz0jA9ZZj7mdj6JLnEMvLIrxRf/WhlCh85Xnf5cIeVMebAhmmkanbEyoGImPqUEY9bgM8SpcE8C0ExFcesJuvqhn8ozLiS3Be4Zbghoyad0gUaTGF739G0emhydyvlWTHn+Evqf0rHPLjxYCpxpx9+tfm7R+QrMHg7zPeQ/d5rrBIcKhJ9D5UwhzfbKw+kFVtUu22UfJcoc3qSRo0OJgQA7gPuD/gv+C/AmDOUDF114MK7QSQrkNiLnTMqm0+F5Zv+v6YvMa+Z787ZqFiIJmBGRbhAr3w7MG3CetdysX0x24g8jSz2jwek8DyCuoWzR+ivlZuF0pR0SR1sTb4oKEK5myexKF+OFuyucnR9YTTsDwB2pKfpmFKUTk7svjV7Rb7AGua5rJsTzb/V64/KIivq9otygeOo2oNWvTWQcTeCr0ANvARd1IRwNtQQYOSfyKIcvQO9ncqoZCod+nCU4j7KuDlTslruojmC2xpJtq6vCqebiq4e5+J0Ua6MV5+1QTdqTon4G5JVEFKSykNP81lu0SFqdJZ+iKaxsn3x1Kqq58IrV69wrmqvBOlenPQMEoErRhSOqGZ4a1MZjk+klen7XhRfi5aEt2WY23NvdNkCBdJTwNMLlloWmiJPnQ8OzQOO455Dj1LA9KlrumqBjHsEiRUlbj/Hum9KhNWP3/fxBAcm2LPxyJsYjPZeJqAznAAHZMQV1Y4R/GEDoRdmLEiW6FdsoWKnkbXGtuPDq06xeK3CIg9RmhPtV7BCzPjYxtAjrSYAu/DopXBOfs0pWL0jh0levWOqjoAYZK4JyHRQT5CGGbMBFvO+x24FvI8cQSu5p0Yzg5SabivjmCNoViZrWWL4mxRdnXM8WqDT6LgthIq8FY9mw1jlCymOc0fjPLWncLMzoJRPkm5oEoU1kz3cqL5X06IrtuAoFflHFCEZplNba2Ug7IfH+YVfZBz5gos/Dorb0vvZFWmg9hsDWxZ9UTsdCTGAE9A7BqxSooCTrHC5Sy08fTF43IOSQ765oFfPrIKh2JPQcC5DG+lm0wmaRibExVVbLtXaMzo5Y2BQujFcvDTFGfRtoHoLKU/ZCug2fr0/hrVsMao0lBiqHq5xlfQB4WW3JgzMUMe9FJub/ACTqfgQvnTH6DBqH6IcMU4NejtmNKuBJ/fpCa0NIc8QeOk4OQu+0oW/NgVipvAu96jrYvS/L9NLG2pnEpUq5OlXEVZbEIXYa+SsfzQ34VGZQoA/kv+Kl3CTcvQ1b9YgnERSQfebodJ01LyUna1LmyTibK6C+O6W9N+Y6InJG/LPFOOE/rE5ZWp2OipB30TPOagm0vBY58Q6NhIUvc4IAntkZ3jZU3GWsbCkWWSezkSGYs6oGW52AjamrWB8F9svO1AHyapWiYntoCcRouiNGLnQgCCjjtJSjQ7eBAHeA+4P9DPwR8DI/DEuPRws41D5AF0FlCl5LZ/5aCmFwCRFHx36z0lHijl9cUkGEPY6oxqX68Azi4Wo1nPjIBYn0GyRoMEb/DdNO2BengNpw/kOVpyiJ3sdkRNEwPVhgIpZoPd6HOEqtlO6aebZbt6hNNBPdZA51DNulw25eRR4KjvBocVIo/t5iyHWQYQ1Iu0cUf4xx9vaef5Dic3DGziZwJev0Hb0d2q8IWhjCIRlnkc1S+Jisq+9Twi6y96J6wcbh/7Ai5fyVurDrJ+TJEaJYCHkPAW1DiRPeo8/hXJKxzF0ujlTx+xamY5nbGMX32U9YwClfyBMl9QjSiFPas6Vti+LReO7RYdYU5jJuSlPF6ohG6amCExlSTNyt/hTwQgoEztFfIr67IKW8vRa7dQiZM+zUjPA5ApchqRmSsqhBYC2CljtfJQuuO8QSQUeJ43DXnAV1ibbafSav5nL8ySg+RIJAzWCKyr3P1j882PGUczjHqawTlQg+pbAgY4EqnShkBVopMbrmrI+h/ueT18tP129XMoeKqwmkNyNjGx2iAvQ1OGI6wr4TLAkXG2QpxKd+uYN7udG2fbEBDThvx/ZhcCEeaZGIW37T/Dk0NP5LBrsL0ZvKGjfaRVR4WPe2p9bGuIFQJ5IcP/0mWK45EchDI1C2h0R/hn1tTs5Fa9Aziqw6WKvCmo+Us+5S04AqdpfxPvKkgBZzxNi8ssNsrkFGgzRuDGITstE4tcctKGsl9ofMWi8jJyMZZ3rRfjhHp5dK3T/Eq5goDnEq4dCtWDZttq1NhLU5cDb67Vnb0pUgijW1O+Xd5tLHEy6HamUCFLzdsaSR8ZjMw/3bpQBVWLPnVmzPxK7PKS12z7ZCGgAp7+bTId1DXTCjYcUceic3aLVuMwsyZ65J0ze6NO3ZhJyOi7c58PJ5/2eEpQ85sUmRmg/h/2NXqSkiYX+9R3gWnaYAduzNb2rIZVYpVWY0R0K1maz9U0yF0x++Z+rzWGAyYhZFYwCFmy4Z/SvJyjIFit9Npn01F3w/qi042Ko22i3Zep7SGxSld7Hdz+gqNxDoNfoBDxMS1Ib0PhLdV7Bk76Z2WgZUaPKBnx1Z3DhQFJQK2k5lUuBDw4n5WPqKAe8Jr+s5YLdj80Qz6UMKUI7L/iggDUjuVwZvew63SGOO6h41cl2hgSXJYTMhRFP1By9vIbflhuDcAyHyS6bDgW65yO2Sg8hyOV1x29imSer2qIkvsEjSn9HzYt4IU4M3Z2io1Jkk5I+jQ8aBALSA+wPwMrrZEEip9XLFJAcdPDPONJQEZXCdJA9qxuTJZvz1+Ayow7j7w/eDaV6CcocHGdg5GpPQZ0Sc7vZ5xa0xCRiSn7aFkCZBw9sUQLK34wpDMB6zmgO+Pf1C2kUjLtRH/ogjh2YgMsBdodwVyZragQ/AxENNOKEcpv/HcyLiM4uFXYSxI8rJHPD7g24+6y3WUmop/As0jZcs3U+UzSOufIB54vLH9byLhlWuX7MXwD4BmMdo4g77kZzBEOX8WSrpCsyMrKHGKC3G6CyEOpt18p+x4YhNF4Qzz5vybwAAd/IR7BlPTvWLh9DMHcZGlTjV5wbJYRwtst16NckOvqqr9YoA7hrhKMQjbzMJ4mVyssKlvNHcQgJ7UKMabejjMC3VSsVpiQY7T8B55ln8hGOPTueUxnevQ5iSE9nhnhAM3HtElO+tQbMqeULWQXiCDgokvlIyQdifzwVTSmXRNakPMm/pM+r721u71NJY0muQ6y5mAuCU+R5K/+bkq7cnnTbaLLOP46xV77z85hV6OV5Ik9xWvr6iqaGcn6FBTo5bfzDvhVASI+fs/1mhUf9l903+ZwCK35Y2LB28krkdriaIJMJ03fYpZqtciUdJegLI5SJkEpAG6Hxm4bJtjFi4XBJzG21xV6g7gKCOBwVlIGHDaVQPAUvVaZ9+pgN7Nf/HVN555YHVze8CA8xPsqXo8a3k6IAQ5l04RqRp4BcdCP/C/6ZZ5KG4EZC2vhJENsbVQUuf631PVT8+ncBJjusv5BgKdMvtqn1E4vE1S3ImLZJINZKMj6VdkotRNqLH5h51XyrFMnbDvw5vqVm7TVfe44S4yK9KF9Q/1pWjfL9yp8Omi9SP8atbujkIhM6+8m+VyV8hfvckx6fT7pAeXtwpU8yDHNc010DcYBUmIRzg7T9iHXocT9ewEa87+t9BvFZ9owk8D6fYa7pqOsfUrhNzk2AAp1ZugZTCzCySD8A1lfn3cnKGg0p+AjcO1MGi4Wk9RDfW6kvfECgHHy9K+qBoFORlrW1isuA8KT9zW0P4ecrak369ep2yi9EF92nWxxm20LHTu1ybpT7yCbe6FZfrnutm/L2hgLpVkEruXulMofRHBiUI/LACiFznsgyqMky/aJIHGXPLrZp3zHvsJzkLzgkOwhJXiXAE11a/RS2CzfkaBMsWTLK9Eau1ZSwETkydnb4HILS/vW2onIG+1dPa9eF7noesyMzZPJtuD9BUbS4NSytXf/kthA689RAM04GqfDMyj3b3v4Gfrwabu+97LBmwVJCjQ8aBAPCA+wPxjHKvPuGYSc6odquWbjjdxOSLzdVcJRkJfmSG98jMpMZazab4fJ5ESxbI2KjaEqmY0/j7MtaFlkZp/qbnTOtLanS5YcjPZwc3evIY4kDnv5DHcDrMAr3AsQsHeCb14KnegqNIH+vJr8MCTj0k5a7KPAjQUFA0W6IXTvdHzAGJa+aStrPeXJL3RSW5HZ+USPmhjAOsbFc2BVF3BXeMuiI5YwQog2PB5OpMUBYI9WzDUh1KuR/dJ7F/IAIJ1P2s3RrlZKUeM1A1916xzjQiECUiC80ZfK7aBhvb0u1Amum+tRsOAQioWi3Tu5F+U8C16cZKbWb3CTETK+1H8efDYY7DlVNROCftd3+aV0fBt8tB7uZeAq9lJU/wOSRH82+vlxn8UbgZOLv6yEJD02Vir5CLpAhzznjuB2sGScS8yExEjeygzsrhOyMyGxYg4MlhOKqjCYLUCOPtYvFuB2nlQ7/NAnwg0zePcavm4LkQTzezISxxUpky4WM0tByLwB5Xx+bKygCsyhHr3GzEHuYnUERpPqXO1AGqeUuV7XcGir9ByRkWKwPmZaeS6t5YkTKdagrmUsk1+fatBW3b59Vx7bGBRs+zm4+zhbXKuh2C83kO54GDEDCnhiO6AFaE5I7NWBkfL8/hfEUiwGjgGAwIPtK/e9UAndi0i6oBtFuVSEB5mdrIoa1bXUkVUVezkyRQj6+E+2O7+1Gl2AiopeUYi2YkPHBLtVAhIOYbOOTA9zSIwLvW2KF/jjUREJ1sD7XDfusRZ18/HH0ox0Grc7slz26rSgegTdUgxH0hkFSP7YftF375XY232I9DvgPnIu5L62qjttpsWodj15bqnqzOXiSX76Hr/1IEE5wGtVZuoezhiZI2G/lPtd9l5FKkyEbow7IiXCbAeJFP9yF4shF73wDztF4VO0wVs9jna5WZN+xE8PE6FDdDbJkb92HZ2EOAHXbTVOSWg1KdBfuCRuf4oeQoTiO7RUSb7eUTD8nxDRyOOhmtQxnATsdugVieHIAtvOVdMOikzrRMp8hwPdeeummRjpUeC/8vZ0L1vExNeY8ZsQqhqivqus5v4ueexTRYEkfvyJlTHaQes943WyAPFi1s9537t0WjoQHYMOEDHq5UavHxhIPSdu90pd8hFM+2j0TaYx1E51XiZB0jSy67r6YDNovTZBet/pft6fenntWU0vrUGte5EoW2eLp+zfQ27v+lnmUj3NgZtKALwH8Ks1foHtbAGxegwsIdd+41xjiE983TF9Puh8dQ8PQFfs1PxIujQ8aBASuA+wPwSmdM9Z0M3Qqv4FS06ICy4F7lG93/SY97M8wb8YDGvwxRjNrG9biSO3HSH0Yy7QNX+ZnlDj4eMf1ci1Mh36YjjRqq30AlZo+I10l1sSj6G8Na6FAw00GWDtZIdIWyT5SMLKGIiNjm6FRSIe8HAcKxIOcPInxFiVPEpAIkhHyBphb5rvLllXA22oTUhwVLRqHsxbNRzNSMJjluEQpQ0P7Re3+T62jjJSAUk1ELU1G6Ed3pPTFqh+Z8/sKH4u8VS5ElhDqy4deVUEqFPRBshAlcSEcd+jlYA8+fmIbkNrpS5/Y+WMStOaejzBATiZXRIR5JTWL3h/0r+fNbqtiLR23MxYD5OAs2UQNwNJ0jNlw3X66CKqttgOE45Uyy6CAUAqN2BMhTQBcd+Xpu6Q6NoRq4yaicmzuuhzPkQs+fLzmUj/Ayom9YE5o8QAeEmHtJZY8sJbM4lPxD98HGNsMCpZGd7G+yYGfnac/FMAd+6qDMgOp/j80k8+4ni9jEwgk4zCELUqje2/RJM7L695uyi9PhMnamcqa15RpstOrrTUYd6BrQHjwHeCoLjOiVozGsQcBW5gS6bCvrmn+1AuZF/Uh3M8bvSPpPksgwp9dQvWBImuqTw4EecLgjUXUbH8zK6+vTl8L8sJygBIJvRoaTyT99prX0EXPPnz5D+SMfF+BsiJNPJ5pYBBZNREslXWDToTG6+m3svKJkl4g/s36IxsqMBeun8Q8YBVafEL6s2jN0GVwBYvz6EuaVP3m7JwFE1aioDEkTgcDPAWYDfIkWcd/wzcXy7h+gB8NDfLZxJSS3k023MVKgfdgO8CS/35tF4bfjvxgYBGj9sMP313nVnFSd8Dg6MPFFzUtD8sXWJbb5QH7LDQh/F1a2/Vc2tnG2pOaChFBm7zaEJ1LwHcMFLXIOXSP1edXE6uBICnkA+oy4s7W9d7M/hUq0oT4weKKpg1o6f5TgYGUoJ/xrT3bnZRd+qtuS2qCq9pZNPU4ox/0P44ho0SIwp+vQLIYIda//sTLbuY/AX4S6hpJHVV9msZ5Vh2EOYNzvBRZSexuzBA0RaPxnYxezNhELciOHuYfG66ZAClRiIUXwLjJe5+MJqqRuB4J6S1ldZO29Zvn156Xa4i4brEsR0HaH0UfL0BIqnVeLBLrxACP4acAz/uM1LeTPl9hHy9+3cVRG0rzDnN2gPWWX7BEzN2JkZzT/yBvgsqJF8gIewAa//yoHX1UknwT31pb8N1Kj3ldCRJSQm1aupqRX+ozGZ7Qac0wop1C49JejQ8aBAWeA+wNC7BMj4jyG1WABzVUXjNgiKfLOpZ4oEMNerbpKaFgg90IHPgA7eSQYXvmf6NmPejgYRNNQBhl7NGmje8VZl1ayP0boy0zldlliFCvVFrpItgdRPSoXUrAacZS6NJJzYSlSn92Ztp8wOjmomfSHuIFjazy3GNE48fxivG/l9K9WY0Vlaaegn5e5kPpVRWpweMIgSwEhM7NDe4dOEnSBjArQPdVV5XnDbZMJaUrOYl0ugrsG9QEB977A/aLb/2i17dbO/UNGQOmj4Dr5rOyLs6iDc5HxFplmcpeDuoFZ9GpbWrh8urKAwTIaWsdqSq5LAkYm4AXIuV30F5P6a9s6moSsHDDozuQCQegBhD+rtONx9dcxKPFjiiTuC3secXIdH1tI9GpiqspSIzvVmbgYvahFESG0qjadqT0uPquDbe/TE0LBlQRhl9+KdDzuhIBiSW1TJXDrAwj9iZPQ4iRRMTLzDXnrDcMI2OKcmF+xlepBhbDy4KBdwyewdxnRC3niklQ+b1dFS2KjSORf58zRyerZFkLiudYgss1sakR33vvDc7jD1ObbCbkZZX/tK6MugWeHyr7Y669UWyRSUrIWsvG5BFTWhWsRa232+sQ6mij/oGBuae5KVtEi+iOyRIfnD1RCIXPXjjGmlIvZUQgCn2Y9SZ+aEgPdvOAom3eXBr23Qh+1wTdhq5KsDzO/i4HQGo2p1TTdXFuLsSDA0LC6SaMfszrM8U9sk6XXlrLbFpmZeEb2fQ5tUeW8oA9Yp1A2TQ2gwKQiikIyy63eTRmbcH/41wHy0hb2nIicVh9cFN9qumUj1ueGOLzYbDYZ+Qt5Ki6D1ZUpizPSdD4TYkUlFWbcQdrKmuOx9wyHI54UJLyuPyEepgiRI1z+o5h8U7nu0AlAT8Xl4AqQnGhyL0D2tfdYO8b2p1pIb8A9WuD/2oWSncL1xDCdGb2PxPDAhPm1j67HQ487/FRqytZNSDj3Wmg6Ont9fUMiNwPr0e91/7RjOMYutvOtRI5n31D08Gimc1998b73vaBbidzu7NcKXNQtNg8pkqTwwD7TTU9gU+ZJY/NZnAovdPdqv3RFcsA0Sh1YJMtUDFC7X952qax61qEnBRgQZ4ePZ7ZrnfLtROAeua7QiEYsLMEMTmiZ69ZIfIap3ms/VoZUid59up7ZZLFhRKHn1IancgUK94vFReERP24+6rgpjVv/xbxfW7Sh4yWBMZKeJeDIcMylDUn7cX55KB53igDJVJix5sit6Qt5Bgy96D/LjAs0PvP2E8FYKhWjQ8aBAaOA+wPvx633j6uqKCr7mvYFUA8zeLG99LLH0xKeCp5NMW8NC51B4iqL/MAqGX4G5M8FkssPb/RgB25VuvKZwN71At/SpqBSy3BrI9+Y8usbhq4hdKudWGjzWGl1m4AbYxqtKG/20BwgOQoZAXMdRZH7alVedkpsq5Vj824pnVNS+UsHFN2xC/SrQ4cuGEpJOB9NXHiXSmM8wYVdxNVQim+WaWGFXx5726Qyqg07xim71cto/eKZyWmVTjEB86a3eqDceXaGZ5gyiX8h72kxE0Xwwl66qVYo5ijRoaKOldOzjSYje2TH5OVXO+x1A6al++62iRmTTvAsOKF26apaBNRzj+5kgOZKZX04AblWHzBXBvbA0dapmSZ5udWgSoLpRwXt3MgMUzn52Q4FncYzFVOdB65pINCXgc+mypjlsEMJP+eEk/A0rTBINA4uceRClj41Ky0ZYgZbKkKH4JNi9GfcfVO71GUNJAe8pHTmNGPpZCG05gNvVhLMgeDYBMOjV+KsPGuzTayNFmSdMySzqyGsZplS3bRbFfziUlVRLvbNI3Y02aOOwLKxgzqEQkGANv/x0h+BdamzTdEF3M9XW0Ewg4EnvlydPbdNtl0gE7g1IC95xCAyjnuir4BuCcmWgv+/H3lh/YuOm+iMnSsuxb/1GMoYpPoNdqXgcL5b47dfr+1sOeTjssVPf7cmLsoZpVM9kDiaOvf4R8MKDtjMUQP+UGZYDuFKX7zUW73ibibwIbXmFYe5pnakg42R6Pvlg8J8bb9mIY9QCxhICXluKIZN1IN3+QZc2+UELQXMsYlxGrgkmghFP/cTDZaZ7heQx3eDL2VTimgSjTdJ+8S9t1JD4jSH8ZSXryFpzDl7GKXtIToy7MyFciR7ugXlaLoa3xci50E8+nMx6qEXPiCG8EcMrCTNrZ9EBkp9Q3MGlC4WUg2WTQfWTsdMmVMCJgA3yoy0aojTaIbkZ4sbq2ZCBvWlIVmeLC54d79/s82kkiG4Bb81nC4HtrmIQ+5UFd9NekCfx841xPnZTOxasRo7rm5AXupzUz2kCSuJZM+s1oQ/u2w9K0sCWpB38+x2tt/B5+nnxGMwVQ2BIAnt9p2zFxi6WX9PN6xF5GsDpV5tPTOXLEkFuk1WWfUq+CWToIFcBMKFwBpHIjLRHem5/J79o0ka4HjusoqUABVOqo4OWQFwBI8o67Pa0HbUdxiupyu+BZXPznyRd94BLBx/3bvOqkNanJsabHW+I6QmVjJ7nrmK7R16MoBlt+6xLsxqteLhYXz89I6jQ8aBAd+A+wPwOVsHGOucb948L+4Bf1rE8qGChnv8BAiOdUXVGFxjszO3avBPg7eo4bZYhaOx61y68RjiILlvLidYC+iCdV9xRMY6HoCDR12N5LBWwFA2F5EaRxyMCn38fNrgDD/QTwKjB26pRMdcidWQgKbO4u31A5rpUMNRr0xbGFLdBocf1U0D8Iy9T0JruTUN/+QmMYM10OwmGemDOPvSfL+lYaEBEZrqJe7QwjRIdxkGmsEYAS5bF//P8+BdHplFXfLrgtzY4b6kM4X3lDrwchJ1WAzTFtGWMyVrv3bpwY7lTd04rgos/NMEcBF1oUywGai8FAXjdrAsIV1CbauGH9CO5+q4zseZD+CMsXpysyQUGYicRq0jWGKkY5EIIe382ewhf46+UHTF5hLqFx4pBSz3U4sbVM5nQp63R291MmpEYaE0jO/Be2Ak7yiSdRK0rcnv5G/9yBvs8FwhHBFk+FZtw6tQC04nc/FN1XqVf11/SYxc84LYYGjKSskmy3jsGtTO8ob3xqKCJHVrC8ZGlWG09nYY5de58fAmCZMOkhCdjiA1X3Jp4uuiTv17iogZ2D0uJ7FM39rP2PAjwg3LpWkNAmFoG1Zsx7hZP5N53uLOkO94GhuW+sKQRpmP0ZcU/FzlLau9wwAvDRJXnoO1YVn6enUb1Omurl7tfN27qZjF3wayG9oinyYAvAhcccfN8y+wd8AlnrLM7kFGwSk8JiVAocwIU8OL0AbcHsMA26zSc6+tUY+DxbjAiAiw/hs5YaJ7cco8tOwE2fOI7ehXZzrmHvt7SW9Nynzv2N9yycbv+SmODWjUPlOStA/o5p2RoWSfpglGzRuoxNOC/8ZvFqe3x8ST8DhAuhg/utyGVIMwgc7NhTF3/HHosd3qaUftsRItLQedfb7ahjw9VbhZ+3gra+7PE42OujYvB+YsbMwt45zAK2tXp/l2AIDXmYMW4LxPdkgD+a9sw3kB5NuSRUQCnkPfjfyQhV5sbJ+PvoIPbqI+7EWSeUVar+rihkQsqZIMTg6U9pGFGL414c6Yw5y9P1XhPemc/+BjJ9fPdJsAN6UR6t5u3vpgXvEa9L9a06yUVyJt5A7k1mzWCTkgFsktn8YK634Who4VMye8cZGYMv5BCopkLDlHhtXIivg3mdp6Xloo6wHnfiEuADLf8wlzVaP5+nOgByIAKAO80mpol/j1A2qFo7z8UK3xDyW9+uoO7UThGmL4fy6JZ6J9Qyq1Rx681llW67Ml/NX3HTitSgD1nMXhs8Vetx97iiItl1rQJJOjQ8aBAhuA+wPwMrRtfZph5cVl1PkpzGRqWj2YhutEkIf/3Opc5rBAlN3dxDNhEED/bAvE4RcKF4gu68xFqR7avzHEYo/xcYnNzHA67qwk4SMc2ra2BGVHDuWtuaCfP4ywDUMTkzc+/y6+4acTmV+ix33rxXvq3bHErKcFH7+roFdb7NM3+u4wBGdnXLWHQ3q+guKg9tPlT/X/BYxBgjV99aZxA/se5mt+LTyKhN9nZVvAGPlgFVDnikVHHw0j/KCksJ36m/9oKfuu590zJypfcNfZbnHAWeu0kMcd4OktA5RJZNPzIhuaZBkkCJpGPwiJ3AkR0ttlJ5ZmeH0s5JGlSFo7uiquA8ZXJCKoMiUVyYGyQd4qjZkvoQ3btnVO8Ysis3h8PeNRW9sE3fWtPGAWnsOQT8FNzsFG+ghqohfHkhaO9fMTJXwkj+xjVmapFlXrWPPpFcEmitE4gdm+Rwaj/E2gjwy1PYtdTH2VciIFrT+8DhZbO+CKH0DHxtDytnDRMSwkVGPATG4lyQ6eKCpJpNNmznyrZeY0h1rGCjhhKiYMVE2TCmcteCUw22SfVakG+H9qSUcZKjc14EjuhQE2Di8BRtRO/LzEMEnH9e4B6zpDJXhojBknXLNRNURfF6t5AC8DkrcupMH9o5bDUF+L4wtGjdU+z5A7sYuiVlRNBxWJMYXLGA/q3qCTnFnu/IPUsK3qWkzqd+aDEyvRunst/uk+wBrq9StZMqTwDj18BJzsH1o6r3kgHu4TY6tISSAhTmEkyje4sj76s03q0oO/E2TQCwHwKHYhfkNwGOMukjeS1GEaQxkUVAvpRNyia5DkudmxdWFzefFvrz8kr4nBDgJpsuBwiTSNQoZpuNMI/WY+sxaP6vFhWr7qhCEcmMu57Fxb1xKKhCPKfIaIFbB/H6b66zRL5o3g+GPrjk/H7/LmiUU0EmB3d7b6jodBRDlqJhSTekiZW9FUzgqsXrNWVh1QDF40VwESBJPIlJGcBLGJGD6x+d53dMEjmczaVXQvsKGDqoDk03lvzod2x25EJjTMaQcJ2iiccOh22IMApVMkkK4pGIga8g9ta+RIXDjj3M48lA08pK+fMD1aCtjc3wZS3zah1PIIKIUYS2vfql2ofpNj693iox7T6Kr8sMjFklcEE7FpIw5BklifnHRh9G27cyZqFokW4IZqOcg7ZwNLYyHJ0YWwJyMCJXAIBDhEIrFEK22nuxesK9kEvxddbk2erm5Xhxx3u8siHGgMGra615CUFeh4YtfTBw2E/RN0hbhICuKDmdqjQ8aBAleA+wPwSl1C1GSg209lvahOfVK+N++qSkHkMj1naCPl3JdL8DDWQsL3YX6HjuQMQoJwjQttwgge93ATYLsLOAcscruYykh84pz+1hBOXfs6cD+fs+go3V5aQCbYlXST82g3iIizcq8hW5b/2YWVN4sSVqjNck0l8xKwX1WbUbMXuoPNz8HJE4oQQkJ5oB/12RI8uNs+1cQJN0nN+ZEN1UmvIW4M15bEFbGHpLm1q1qpKkz4aJUgxA1ITDtetFXHMVDkQS5cfTpG402RBEGqElVeAo07m5uGh/a44WKSZtsC04flfVK6VIYjQgare1n6y9Ji5y04cPEOM1IQKHFYcD0Baiy281CXkn105HuKh/AT4unGWRNoszv3zSnK1BEMJIgZMjCNahpiFbfJckPi0qp60bLo9EsRzDNPjv4ktqOqb+o0ju/YY8HFz+y8O9DKKzKycstOn0fqSPLCYtUtHBrukbvEz/Brfx4+gio/T4KA1JjcRxLz5eytpZPPxyPIjQerby8NomNbTx+yDbNtOtcJg7Jt2oVintoPlTbJHF0kRLOEnEm43DWMwrGr003Wjszz3Re6Kt2etLPYn9rK17axJTyBF3Sju0au3iyyISabB+ayuadCBGG7pRG6sIp+WioMT7c0zqL+6oi33AXukAIaDNb++bCzYgJpFfhG0+ZhQegthXQlwM/p2VPKojpQsKdLGqQ8Uakaqr3Ry5Scm7Nm6T6mD5iVSPL0evigERziwkm8VYogYD0ei0izazf1sjcww2IysKefyuaKhPSHIl3n2ZIY0tHIUnb1gTlloYRgiBoEhF3vW9p5eV1DyRZR/VC2wfKOu2NB8NmDt+Gtwd+zp7SS7KER7fwxcN+0YMIwjP96GfU6tY1XCl2k2Tc1NZrkuulG+IYPU13MiBuB225Pjwvu1GHRssAmmrJW8ywu3fH7YxtDvJRYW7SGcdsqkU/eGj/KHyByLMCfkwhZAH7FFb2HkSyAjVB73+T01k77JifIms6PIox7Lmd4HAY6NJah8e7BM7VEtSLEV5bejCpBY+YRGzrKJlUTRfN/WTdax6JgrbhG87ptxTHzFyfGyYkoUM3z377MBP3T29jUbQz+6R7CfDPiINzXclDyX7wAXFMXSrG8Ic+wEljEMQLjs+wHhbYcTrZ0/5F28aMaC1VsVsUP3yk6VAIDbx/ENHvdn/B9qDEldPqaGqEpYNvPW620n+YNbYGjK3Ri/ljDXTTcsAwGMz9/IAUG2atH5TEFyuVvZb3TGZL6OUm5DvfS4DOVhJejQ8aBApOA+wPxkGVYQZmCCAfNfyoEo9dXqYl0U7Tq4M9R4CLAvcFOetFQRupYNXb1gGgvLfFI6CNqRCYG5jensB80bEYK2vt3H8naqwK1u+Y6Cik3f/xbIoL8/dbekycOv8jZEx3GPEhfidxwFVEf+C5X+1qP8Ltuf3+b5lQD4dXiIxi1Rj3ITnZarkeYG0Z5nu2dsnJcOhA/ijmX0Ju48G2v3xL1R8Ev6QxPY1XeXt3wHFLADEA7BFmtKZkC/r6S2Ls+zPvlbufAB4o/ydygUYoj4IBmRGq7eK4KvrGya26Smrw7nVwGZtemNoy4IrebXIr9je39QdG/6Eo5JkncAQMIddleMp6kVLMLz5sWvuUriFImHa+AhAV5z+yV1KkoqUA+ehtUdCYbq5o+xt/lBzPapGgRxFSIwY4tNzaKPqK7zw/64fW0kPBKyIXyHuuwKwZGlUajq3NPUf+7vdtlhK2iNbY1LtyY9OrfTm/ONCsaO51SP7f4HMReCPNnpNguFRwd7Doy3LDJMig6GuhCO7VI0kuJq/2TTpKCGvtWWnr1u7YvsV30oQzdfAEbpqphd4/ingNq7dyo3wg0A93lmTb9ODsLwMeEbX3n/Z7ZMGgDc4a5bmW00Ig/DJNDOvphZkVEHnh2jD/kmFpC4PAKVK3i86XygQEc3DPC6C1YTAlxO1ClFR4CsFxXk5ZT0sGVRb6St47q1F7A2oPQgC7bJ7qKskATEyci0MJftbRSN+p7P+i6/zNo/+xQ1jYmv7jI8MegGgzOIQIfXFWoG1PaO554p/K5OlurMwN7IrAd8/Lmjb8WmpIkaiK6CHxiOnoRcT6XB81ZD30z1ypZ2tnBtVckoFGuvHSR8DkaAPvuUwMX8faN2EpDrkoYU7rX71VqcJEDgzR3acchFtxSWrVVCJI6pOl87giPxDhSUU5PsB6K3MRgQA4SA/VqUPbEkydBaT9wmginapM7iJqNkm8CwH/fSg5pL4qsId9bPT7PPUoUvq+bMXm9SNiMIjLehiWtK0yMRiHehuGOW29d8ShLw79jAPTkYLXocarpVrtMdSMHiO+9jdWBcHd8t6GN1lutfpXs+TxqCXE6eRSB3zMW+slj2AqJs2qvFPfs5TA69HohXPzEBdKeBPQpbI3HVTfpV0EhmAGobGY5dKlEq9X6a0krhbgsm5CtIrXedMiPvvwjUIi3DbLgcG/r1CP/zIq6xujqsCMXKTmG/aKMG2BznCYBWzdVDGxSR6yOZ/cvaCiPpqEcSvdkj69aYJcdzxqzySCf70GqFJGjQ8aBAtCA+wPxl/aM61JexyJ2WlOwuiHt9XMOaiLKclYbUe6Ufhuz4qbEkAqcgkLNKkCOt5qwrCaszUzK0QJryAEUwajDazREBnTlcc4BoQjmPyQ1cS+W/6c0TIzSFG5B7sTNdCsq4T6NNj0hXIbwCudM8oEZKNFkrwLCTTInc2B4ZEMOuMsYvXIGGUwwFqS4HkUeY8AZ4MP2av94iAVzh3QQMTZRAwhT1vw5P/vuSk68fiJa054FGqyd3BSHV8rZbeSN5of24/Z7Aseaj+wDyi5N+zhC7FW1vdOyspl/R5P2UpLCo02pHUSE0brFDu1GQQyR8aIWaQ5Re/KQkOCZZ7MLBVSa06iZdfDBXv/b6+NxNNd5qHznl1AkWxH7KQOZ//AOufeEbXNWRukVxejEOcVvZe9HdRSl+kHYwTgyBts1VrRwzKb0jfA1SLRJn2QTjiYK5DtLPjDaRhy4V25yLDUCi1c/FMhsl9PsRsv1GquuqHyRJKU+LYtdloxRrHI9j8oneO+GxGKoXse9w2lV7sYbc7AGTcDBihIkCjXnoQ2uUK/iJjwAka9mfT182OrwRntpHZuW2GQW4pAgLUpQ2c97fF97i0ZeRi56u2o8Hc/GCR6YXE+qMjLOgVE//I1gGjDklZhZ1zbOCky4YB6N+grYkgvUrYH5btJdFgqJM6V6U9KBhugKVhg2zdRtpHZL6/s1S5kR9lsHguSNnnU3oeRJafvr35uuKVBSb9tcilG8sLUB2nXGiC+/zYHaQzx0TXlvkrHdGNBGci9N/e+8kCZueXk4CYV4+mJi0a7JEw/WMVlzCy1/SGvn22eDGew3Ofg7DPL+OlV8lnDhlrgLLFTPfLa+ejSQQrbTLQ4Idfi+Psx/is//azvPxtQPWQ6GXEylYPMyzL1OTUyRHiv7BtahrkM3L+UuW1fpeWRSjx391ZM2ProYdnFddfujozjnke9wn2Jzup7D/jVelQzRlVjVuypuaRGukGh1cOlOvdaD7tl+P4td8NFLrCq8TMyN+NQnCB+stg+NATCzRkfxkIdZKnJB+3AO6fIz+l4nb50iFsPxrz1jPu2yZKPkhf6JLQjkmk1eq2lycExLf70YZnnHcY6nO+h3qS+p76BV4SQSVHtcfk3tTt5KbeufgMZjdl4ACMums+Ny4vxUonTdnPrmMlRodPR7c8jpn5Uec3dMUi5D6Glir916eshUjX+ufQt9I82mfUJX21rHlCnYXkdVNl9l1R7LUmO7GAfNv1sD47AWSo9xH6fO8KEY7a7wgKJWjI95yBijQ8aBAwuA+wPwJkX/Hu2J9KLbu8c59z9RKh2VwBiIcO7DnpBJgVLQ42TnVUKHB6Vn6jrhy5ogxW7cWoqZpmUnaDLP9Ml8LyTaVbQAmcsg8jycj9pzgA00IHPVgZJMnbbT1wPhmc0EasVORYs820RHQk98oNpJFO4/b2gGsNvcFJFSBuzj2eHU+PaEe/HqBYpTUx87bhsE6dy/Bq5vXKFjt9TY846lcQZlARXYxotAocak0K/ljlY12Sj63oW7jevylBcXh7hqWl09htolGCJ2HBxAaEqRgcE8rIZ7rS93jNwGsJeYje1+z3AQUtQX/0JdZ6X6X8GedX0e+leMtz/8dF5NQOmG8bA7bQoZIQAmlklQD45T57mulDI5LG2YAjUdMuP25zvxC/f4ynvhaonp+FUt5yt04Zlja/331Cnz5U9+9t8DHcNEjO+o1sIAmyOlrS28K4XwUucaNG3yCLO6SrTSDizhV5CE3yNSxeoOo6WrK0o0L2iYqIUX1q4grdKUS6dk21FVCvdgo4NIyvVtkm7N1naAPl64KQBP6hbk8KUbMs+/BYuBnIVArrjzAZiCbn8JDHqRuiDrGLGn+5z6rZ+7tafFD2HJXua+8Lv0ANN++yjUOKCPs8GBZcIEHsDT5ijSb1taK40OcIDzLgM+eU0EEb4fGKAl4dcqQhxsmieS/fzQrcN31SSthp56Rm4x8MReGoUBFeWO5e1xPj7vuIp906rj+sUcb22zaCMAL4OEFweMhDxJUzO7FVoAtuxligZlZWHUPmKupQe407VVyHrQPumH2oJoZTSvhMoN1gV84BGPy3tHK4xelT4o8haI6bu7bvPdyBDGYskMy9luXjGYWPdmarSQ8Dtb4yUq7BNuMvINdBZuuHU64qd5GyrAuZc4xmR7RTQ70zIdmjaK7rFG9+GmM43Fr5IFgCX5V1M7Ku7xzrFMeIWj2+FQKNPixl1gvRBFzOMq5k4bTcVSlXBIY415a0GsZGVq2EavVhhA+w4DsCWi8PsqRaAzefj6V+Ul3Pbg9Flv5LsiRpLVbypKfQX5zvkZAQS7OieqSEjNC+UwgqPlYAJLIma701U9+mNM6JwTk7P8ZMRxnOW5gvZwY/6JzCfFCaHH8rgP5btmLp7Np8e5M+VojuimQpzCy6zKPHYYhHulnYOLa4TOI7cxzy/TGXdLSJ9ROypXGjV4jNRpZ3ecDhTyTDm5dVWb/N3fQYC4x47xu/yssWb3wN1Kpojaw31XP5i7/lX1XnNAi0vxrqMFvmUDteRp14cXRjMCf6Z5VJKjQ8aBA0eA+wNB3jmuFjV4IerdgvI9Dzhve4dmFJXcGXkpRonAMGHe+E6P4FcQRyMh4+UzA7Q7i6xxfSGaj682bLCAACvXs+ycg/0fpKtlmA+4YDXoXZp9QhYyKdrjVhD2HC/gNjJ3eq5a5WvDtzTiPRWOE9ZNC+76U1x47/45dPAs78W+DrS9Ca7KAnbMRYLqKX+Max6u5UZZ2HWFWFXHoo+fT93cqTM2mQQ9Kqm1+g44GR2J4ENVpQoCLVw7bUrVAeGWw6mNQ9fkP54FZhy/kApF+XwcMp0MPI6gF38RPMRq8evGJG9J/2eth/kpom4Tpj9QgOsqaFwaP0KN4jVtJ2urD2tUBxTOuCclVRZutqlTosA5IPRlx/9Wh9fvsI5b+Ks57ikuQIIAnO70NJnVZ9/3yoSJAdC0nh2MLbjwvuggt3aez9sMI/Ax+5EMoB1o7JmIR3ZNQmdqmrBQCgw66+u4NrkbJ/RtVSm7dXFzBFclQmlFAomuc9dE+zdsba2hOqjgQpFcAwCxEHCVa7OhJAXE/cOoRvhiIu7m8fqaVkPoFWMQyEGa6PKo96BLm2Vo1vNiy/ZH5300Xgeqs6grWG8PZuMcXwUuI9UlrHDvW+QlfPsvWIQog+WTBoohMHI47wj0jR6jptVmuvaLZLug8XcNG+371nKJgWZrm4ODp88wpq8UqIptVXs6sXwbOXRPF8g8NepFuI9yt7xQ2J7yYmnx9GtsFitnhiQsPvQ9KFuHtBS0AeAbvg100XF9DkKhdLmFyFYe6k00HToJ0FnF2EsXzw/mk5gBCp+Qa0u2AD/FL3kjsN92Iff0QDZenNU8a8we+2G+54Rhxsvc/u9D7vRRWClCmbSA75jW9bQRC9PwWvc5owBmXagNqCpSexKzykMFE9/NyKV6XAdDSEEhwuP698dFwc4kupzFd0cyu1DXD2nyjwXcldefH7agk7MDGvurXzmMqPMihj4ljNy7Z11Khg6h8uZHI0yMKIXeoL6wMWBdJ+8v8SrZEujDmEdDECm7Zn/Lly1mB62TLqlIQyHsuzQ30dA4hlZU0yJmcaff/76dHiYJeDEbSZk6cUQaEHovopwHF7IhPvQCvwY/SUpfzP59PXRfuUuhSpe/iAkX9Cjp97ZQPZ4aI5ypo6PQAyIjpFDlxDLJS0xKQAu/FGXCclkX3z4o71YteuzvxU8aybNSTEpJM4JL+tDxM2TEiUbNfVV9xpDeQmOWFJoxymedWhhwlaxuP922eNPdkt0wTktKaOnEmMU0giL41w+xCxM1ado3lIujQ8aBA4SA+wPsnUkPlW4HWll8tMD2KATfDP+rkdzWhH/7Z+8M/ZDY8qUsztdm7i/4jcpQszPdfgmpjCLVrD2+hGN7Ei9EJ9LdQtxjX0uDIt/oIFcAOH6dUKGXugsgtFj6X69Xi9vFq2XrfteLzxggysMMt48AoQhidOd1aQtU0sqR6DQTfh8+ZXhvN35Wf2bHamuIcjniey5WhozCXxn34qti0MqBmAqDUBO2cBqGxTQUOxojXQR0sVfzFq+tJ2Gl/r7zQEcHHAnZ/w1vVAlXLsevypn6iITmnViEU/U4UMKOgWTNYKpTYztK0WrNZnRIC/k/bx6BblmVAftqKg7Yh4tBm1chbZQSGS7kRr/8Y14U5zN3h6mqBN72ISjDLOPb848sr0KhuDBnX2y4Wfdyfy47Xbe+P7b7AcDL7tCFYcAkb5dDkbyUkPAzcH12BE/tRmrIaEaDn3IHaNS6zW8HvPCgBzCqY9HK7ZQ/L/SGn7LEDqLkf+9mhfITmkW0TIIKaWc/EHBtyoPInlmQvNcGnCunnCdD5Pv9iT40W1jPyWYSbNC38a6BCYOp3B/PVK9l2JgPPk953Ro5nzgsrASXz265VtOCc2208Bz6HtHVZs81CETnD5YMBRIVC54AduClVZE+0Y/4qThoUgrqIdZnyex9Q5x2Sv4kWjJB70bTLAI9ib8AE1mufPd4MKegjzzBJhx37ACKuXbCDWLC4DfuUYa32hUCb+eT69oVzt1qvn7rttWeP3+QPfQ4Ajm3yAaDSzMqThM+RtfRcLj5CjLVhFnRDMVFh8hfGCMajrsMEBHD8Yt1HfT+1C873NBWQsyjkivqXGmwWWelcvT4jdmjUvJr41azBASO8DH7wP3TsEd68Oa0dU79vPyIB9BoHm56mmT/KjwSuDOHirY3OzWKkd98eaVWCLpZ37SONmXh10xHqmQeiwThRDadTniuYltH9mHX3cHmHvmKpVRV8WJ0q90uGV/o64EAvYXB/R6tpzeGa9LzcIgFFsYks9ksN4wvQ3RdaZSMhGuArO3liSFeOuV4n+VscsXzCmFep+mMV2BWNY5RlkRFWTB1MKJo9l1CbDMeqHGt/rdVE7lvCkQX64x1QmRyLRQrtECkWNzYBlS2eKs3/a8iM1U8G4BSCV25nK26W//y3FZtq+dlhm0tcULN4FecIlMNhH8TjDg9fkxY85KlsL8CSu+Xf8Me1hTslumrL2hH7qiPBJCpNu3uhlY0EkxMBdDtejnsdhAEb73rVEEApFRXUpPgU4Cb5SoXIW/DCoSUVJOjQ8aBA7+A+wPwNhrMu3GiXv8Kt2eBa6snxwaUHBNSaBhn42CrVS5+SibexNPDcg3i414rv/3kt2Brwfw66GXGG2NU2UzxsI/vAI5OSP8qqdlBsquP9bKwstHEJzwTssTupGZ1AmQ1oppz1tBTv6JVI9ZF7GI9LE3MbKSOjDfliAf46TModDioSFY1ZjCohz6QdWdmGFSoz7NJl3SnOKNVDUs8QuFSRxDfaI6/+JbX9sV/LDSTzJmSKDWwcm9Q+xY7dloN1fg1pAoQoSm2F6+0iOZyCgiiQc0KVCXjKVCLZmMwN3Hi1EznMXO8LHEKOLlW8hlON+3llCPdIhDOR+h6j772vJBYuMByeW5AU9brsAM5o5vLaAboYaAh/ksWf8ydXFUlqiR2Zi8MZ6d1dZhWC3NTgBDzYc9NcsSKrKwHqZ+fbamNYJ00j++qWEJmJuSufUSw04bOGdAT83MwjdJBnd7uqrunybMV6fU0oPtTTUhRl3wGNOe6S3oyXij5WOLWU+8KQP5vVIizp3+0MzfRWWik8nBcRFIDVLI9b0+HfVDhhxEGEQptVleDzQ6jcr4+32SAa8d8HokODMYwdpbbQXFddytvlj+g95ozeHJV067TBf3ON9L17Cu12ooAeWKBb8/3owjK92ejwuWF1kfw7OZrSRnjCXgTDFihMFGciYnxFH6OO+20ilfcxDMNhBxq41+A9fVqb2PO+lx9o+1dnsGOITBkEZfhmPY3mWZUANq8su4stT0ivgWY2mVio3XSgstyXVfboArGXf2/zod9d0pextJfz12cpE9trpdKPSXhOKt4XiQ1nn6g1grR2URHB5n49q1V/Gz+6B0Tra9Kcs5B5v1NTwSU8DNtrUUlz9Ak8HqLNVwj4OTax4R55VtAbGuwvD3XoBw/26plT/Up6dRsxYYxpjVACb/qp1RFEXJxczhF+OTSBsr/XHBNG1BTXDXp5k44slgme1Q/BWpCwiIfAgEeyhlZfFv1nPFEOayejOXYG9X5jmxo566fPxEaAONdve7i/QI78E49VTwmC4VJetaxQKvhbLec+EZTV2ljiMpm5IzWkLHMSBpnM7/tyXppHV4LCybbipK/gDgorD9WnI4xPGSgiLdh61Ip/rJZ3IBqsNIuUoih1+zS0rCHQUihXxEqziNFcVkN7thR442rTYmSiGc8w3USNQd6BAFGGaTu58qGW9u6GYxeLzmzd0vQDrsOrOmCMk/yXWIoFtI4XhdA8LjgSZxV2lfNbN44KzUJI2DpSsy0PXM1jxBVY+8HnPBahIujQ8aBA/uA+wPvqlgyCBL88yHUv7stiReRiZLmrdskKj8a8tW4g2SsMcms34+Wb6ydwGzVMUS/LwNB9LRYKV6Kh06ZySb/uZ0Si5SzEr9ZSMrOzmCfPFGSAtxmT4QU1S3iriAsWxrkkh6gRfGhTFswGzyIP/FQwNYj6bHrbSbsJcdVapXUAlVyO23DlMJmPUVCJUgTLuggv21gQxvURlGVQUgZEOKiGCRAIT7Buz4U+svRFqaI0P2NI5Gm4VBOxZmpxh99Hj1AGFSbcaKnwU+ecf1C9KXBIxVgoP30VBeRHywEylFeesRsAoRdI+uP8/sQlT4zm8Z0uNyAI+8vyiksoIfktytT0Zq924zP7KlTvDVOA5YtgLY12xHEJD6yYv0QXEBu6++BSS0OSlBNdG2fa3v77JMpiu9QAZamBMXHh8YbeiLohuvEl/AyGBie+J3MvBxbd6sVm3T1yNf0or+fjrHSdDIqOhmK1V00oVFMksVJU0hlPzTDcKhqhmjNEGdYm6UjpvBifTQDNj/DpLOTmHDqzmRZaFOu+u5CQwNnKKfVg2SP9rTw1KCOUX9hCXgxeUfeqdR+4wUqS1SrRi8ALRsfF+QApxgOKmIyuQw4Q6C3W/T4m3JTOFBhGI8xEiFIZH2T5YK8snxlZFl7Kuk3JTWuaLBuKFHsWTIGvTHV7xBInIACUih7hCW8o6ah3RbI/YNfkbCWqLz/i5ESOInQWFHyWh69BSDiWhO/o7mIjR8XxkgY390Vl71MSfJlbK9WvP/BrFitubkCjPZsSmGn15crxq/rj3bYCE1qZ6ZhAF4xA7tRAGMJ6cu8bxK4Zy84DJHRNrG8e1Vb3na0Jxmsgnig3mmbaOSU8Y/6pcRhQJy2viUfMLOcSSk16hwfNRvphcnxJ6dtuEtgtWbISwBlnEg4WzLLCJ32zDZXWpuGuBFYcJwKIzlmloqJCTlNKVfLEcdu6JXgzs6JfPe/NBUC30AtiJ0k8GX7Xm9gI+3qEAok36e5PZPsv0iex6Q9meMPnZ4dQcQj02PxAF3VetDrFIMQA+f/6EKZlDm4vKtqj+Iw5SuE+tl7DXCtRaRXRxNNEZYIqHy62w1TWMWjf8y5whOAt/c/LY3ltIMRAntpcfMkb/6lzgabqGt4LuCMsKSxoDx7PKhRipWg8kpmZgMBh0OtX4SNavoNm8cOS5oME7otUE/cVGxZv2LYdVEAvaVPBpg07nkmfgDd7Q3SULSKYl92k2uGYwVU3OVjMkZf5SRVpNzWiQhRqSvXrtbFbsKtb3HweI9blJCjQ8aBBDeA+wPwS3JIDpLZHICXaUgxDFKJ1ExhtdQqHNP8L/tl08TS4u4Rc/79jtf7UaxijO7s5XooSrumOQSnx4XYKEH6kMAID5XLnm5b/n4g7HuAh3ukQd09j4HfILIuet4UKMMO01rHmx41awyml7ovVDGZ3ERRNDVlU61L98WGI1I0XOgnqye0IecCAeyaikNE1wC4LuRcHbwGsIEsZdXvBLS38weRP0I8jppoqT6VEWcmwpsp3j0zYCXSe3MlhtYiGSOyYzZwfx4r9bAqusr+Hj27ru1ndEJi8RGwwFg4IJBwM6sfpIxDdbxO4cnghxc4GUDjJZ9dM8PlmgNF2U5YDEwft1/7FopCztCvoprh9JzCAlgqzfpe6rbHAKoZ960C4sXIoQIG/R0uAbfhk7hZL8DNBTIbwgdQpdpuzzLfh6ykWXx0kELGM+J6wRb5B1BKSKKhoCRlTa3totdjofdrFvwHgNkoezIFO6SPSXxKcl5oKwuUWpBWV+qTYX05aDLpwzO8JBvjRBqzLEspnK77PtrhTLWXemSsoEETwCYartdDjtChxXjGItNEpUMsOTs7zCZ9+bHsQUTvs7CWKz0BLD1JK9CxEo1bwn8Ka0xJ+S1K0Ax1Wk5rma7rWizxwte//iCA1nZqPHlH2Lu+WURfF7+c02ye/hjVk4VJEFLkvNWn1apHvUOTmtLGS+yJHJc71DDx9hISo8tksbvf6BeX5QqcVClnS1EKoeeDFn0QFkuevQzznSiSe/yamLMkOFm4bOiUI5A8FZP4Wi/UYGNNnqsS7DTsp/jqdSuu8MmZYe+lJp5ASRqvgWsVh0jdOghSVZWRmLkRekFJR8LROQZLu+eYjHOs7FSIsTTIAxX+EYe2roe3d8cnpHHpQ5znz0TdWE1MIc1mcx6xYXyMWXSCbwC8ggaWMlPd+lIyeLtnAnp3RBtpEb8WpaoXeXyABTRXT0UQ/YQFZgemTfcnvt1nWUqcRTlLeA/6dqfTooCy/G/XaodYOFIm52i/IJdfDSDuxnZhvqVHt8thSHKXVh9/kA+sAA+elYmy9cP3AfxS8APA27NBjDuTUkMIGVwMUFVGFWQBZnKUrRlC1I1KhrE8fdrdus468ZaNzaD2QJ70ltTx21tH0jIFObVhYQiiwwWD0nzW1lWOT7MDiZnMQnatR5oiVe+9KaboV2/XDBOF56hAnlMH+8gvxgLRSEPNI51BGW25tzveiPLO1FSYQfBb5KP4QXLDwTIpA0Il/tyA0mi+W5ykjNoezb9zWaefRq2PvmZ0JJCjQ8aBBHOA+wPwOYkeQ0tNYdMBLkb1tMryrMKls8Fq5wyA+I4JR/WQ2xy2t90JoSf3r5lDtKtcqw+LcKO1ByGiSTlh0px2iKDQkp4Dvq7VNTPJeJYqrUNJh3iy61+ECWoG6CbadoiodBlA2qVPn9x9eKFtW2Ttv7qGqzpsAOgs/eArZ7+7iefxNhHMCJ71OCE26rGMPGdf2V0/B+VQ86ECMc2vrV6ir6bHMNu6RPLrEkkRbEp2mF88BscTGNF6R5MmEemewNqSvhti2Dm1QJ9Ub3sJGB70nbjnxCH0d1CIhWlCwMFE8PVDa0PhlEkxovykmd+zX3gV1XtBDyawAOuXGQJAGBsGNU+F/BgSzT2H+VJZYnD0EDObOz+kPi/XvjCee/7Sfk+JRVikqDi/1liaop28F3t23OrqubthRXcHZfn7ZqYhIOQEkfAyEdQIfjfXguHr7xw0/sBZDFhjphXzt345DKMBVZGGW+ZGYg0+B8+nZeDEJE892hOGMwNFLXJh4WHCRYcaBgkAmZZuMXE8mOcuwXbcDi52i9ZklOiJyJXOFn5yy+sRQkxzXflsZU/VO9iIZ6VTxuC28ZPxZ3Kd1QODPFJsOaIzFL8yhr3Au5H7vaUk3MPCTCzXjdHwQTD6Hn08Ua/Fb8pn172dS+wSF7fiJXduGmIXzU48ptyLHGaE67eJTOIOZxhCe5Wv+j+0dPUXboASx7RMkfUfC5+nefF3RGerf7vd34f4sGPI7ORTVXI5BoQ0DCnXkRZznyyhhYshViIHFBzeIlBcn+/S9UK3PDFg9bNFoor+fUYQj/8CAPYnPjSZ4o3jQZMLpW1kdE8Eo13tfi1CmrebxsqHQ006Sgsu2JSR8Chd+yvJ9pgJY5VdMYuLoP3fFhDiKSBv2GVjS35ifhAiw0EBpQy8owRcrDuPK48/XkxNEFipjgsedUwrAjJMXxXnWX57xZ3f3YQXRg7wtfgZuxKAfb7pXQ2DFMCLrpVZk9WzWnFU5wVV6jai1mv8Jwfm2M88yhx3NobaMcXFnoTTVVqrPvhawDjVJIFVYQ1hFCdl3tg7urqYQcFVC7Mgfs61o/JF8bWBR5nZgujJoI7PVAABEWJW3k/9p3HmV6V94UEyk6V9pdPaMMqMpgrajlbkoREcMshX2aj/uTC0NR055IfFVRqz8CXECv0+1UH4dNHJ3nYBCPJjbuFDzqCtHB+77VuDs1op/X7nJUjFfrgKbwDvKSPYvVbC+/b057KQqo1GoBhTLRI1BTwuTQAWVus7KryS84erf2ABQeoAlJCjQ8aBBK+A+wPsoipgeEv1ERgOtdQR6Ixh6v9P+aHk8KxW7m41+HfrtzYOvGsPodMWSxiwkIEHFkq/B2gBXdtd9obgs9Kno3xk4qEI4q7oF2DnYs4WOoX/rpvWQIE9K5NYqnxkS1O/tU1RGYVBBBhIAEVkIt6aD/zkkdrzOERJP3INR1f3uMb/RBN0aiI/gsfCQL8En1GsA6GzbhIev8E0JXM6MIGF/H3pw9UjAD2JJ9gyt+mOxdI+sLw/VT/eyDWB82+TyDjxIJcan8+p5SWKtY0MI/WWplWx/uFnWNRonL85iItIDoP0jVkKSl97IvNObKVqLzdRUO2bYK3SYaCFM20CV1pJce6Dg0BVOq0IzMdZyJuVBTJDFTTYx8fKhzR/SmY9e0nyN1AqbfcRfntRUjLpLt05gnzK+HaboiQnp7jbTo+EIDEEkELBlOQxuVZuGIodtWuhlG/rfqJxYDyNBGoh65RJAM/CoWZFrjBtjutssCw3ROdI7MQedgg5wit8aDyVBREnaW3tk0qRvuHc/J4+w4DP5shN9H+uUc2vYm/9G6vDoRFlwXkpaPHh2LXC1NpMPNAqazojhm7ef1nIItyqTJP+CGxmQa3hyvIArZSNvwpKNp56KPL+96bGwxUeWnCQYwOtCLF7WBzBrG+EGqJJkjcJEBuwwaPrUVKf+iXdeVOBqkoatw75gPzmxON1NXOWH90/KxjZXGnbQ6zmXJ3JmHJperqKaCzkO96FrBEz3i4oNu6QY+/0lzp40cqbbGLXj0338ObbqDfmwe+5O1VHx9BbOOmBeVGKUYPnfAtBRVlFjYj+iPr9QhsWdsixkBE7Zm3V1ehul7P97J8BemF5IOcOmp2e8YpaQfhbae0m2GtjR8Oo3Tr3qxUtcOC7ds4fJvvKQNnBqkWvlYgK8EPaCYawHrYpV6C5F/PAcrZCAU8waKuKgfy9wTVXkctJAbz8GCFLmGogqVVZHxJIPQWCoEXwwyhTrwfAQ9gQZDgskXjrUKQOwLo7nd8/t2zHGwQWVXpiANX88WxBsABd5h8o4m7y6gTYSeN1R0siSbWPMyNc6TgJYZjeadq6zswjDn01nKaNOR1JHFEO2Lv2ru2YmmS9QXDQ6EXwT9KehZrYgATxmZkIt+un+ef9oPYx4hZHFVhNSeGstd4R4q9FlCz+IHc5Lzt5A+01TocS9YnPMga2CQ2qENAlHJqNiTgEoY/+5UxOa/5h1vBPjW/FYRkWvB2vSjPk1EPgCxk6+Fs598SOSWmUaG+PoC3Dj493hMg78MpNZI+jQ8aBBOyA+wPxrcELiZQfz8mgfoTxXgh4qVzvYJkhbbhLsUWfDRMMeU16AlVzB2EB89EkgtK8xG1dCj8tFbrZr+R0otk5nC6bjcZbQzIyxPvPNArQmb1tkZCEWvTF4/7+ugYR36zCj/8hv5kxdbpUUl74NTGgiO81v3L7Lxm51L0JaaOmGqHiwrKKhxcMqDcNM8FQc93ZOU/YImlNGYcdMuEpQ4Zpc9Vc5b8h8LYOafrL3D7kBbtvbsJ5Tpf4am/dJW25mcw0J1QQTFa6OMPzuztzvrHbXK+zGvqrXPe79iVl6sUIqGEDqg3zai0y/KIa1Alqpvb8jQSrlDVHMyJ8PoSLFKg8q2Vi45GAIYZJsOiZKmmcsjCvNbXTHKK/c9A9gYPPauYcUDoBfqpKIjy81Q47v3j568EKBLSS13qlj3RbkQYBFHK0hOygvY8c0JIsK3zmUGSfN5uqm/s1Is7ot7iN+md+j5mTtZuCTWfPSIMmdmkCer5s0F51kNjqbWdK6AcrvB8MdZn2u9GXkVs2/WtNZCeH28idNmzwjLCPiu8c2+DvfFArLA3V4h+2BAYbX2OreQIuq4/fyO6MkNfyHIaMzPy0e2f60YmHcEDK2s7TfI39LYMC8LUhxRqrJ03cEN3C6g2amSMx1WyS3lkiWx3vLALirY8li+EM3UmYvPb5TPc3STK5m+h2olXyT2Ixi4ZQIrJ7oAb9bQdSSYFEkh4XF0doKhnzfs7aCkzSNVzPyyPYBTP2rDVLiF6lclOYJNlYfzlc76dbjGNo61nZ41eeVSCLeNY5qkQlOjPIoG9tLsVdqg3atfRAK4h92XJiuFHtjfdthL6MXDxQtsVlU0Uv3ZvhcAST8Dy0r9+kG/24y71Y1ZXWp4yqjnboY7OyPGJKwWzL8oXrSXpaaR/9ZCAMxP1csQe5nzmWlWWKKuLg4GadnbOEkivWn1+n8DCm1dzYDUxXPfZPNIN14EPhMC8NlCYImriVzCjCZAc19CR6H/TwRfcqWlk+vsH6P83elTyryDBs66Cqo5HSID/CT5IVO/xbsAWtTy5lQGFCr5HYI1Xa/NqS304XIevRYFocM1Q57d3/0zSvVcSXwNN0ND2SviQf6lizXo2zJylBnLGqDy1KgxGJPVoctR/oVF00dVYwL6CAnQEEEJr9zXgKVBbp3UXFL2oVXc1h2CidizT0sTXF/p9ctvbpYplA24jXOzRe44NUo79v7KKpCKYIupgHZWhiU8lK55FtTV8+nS3tIwAKxNH1SHL/4sH4+WM1s+Cfsqk1ZI2jQ8aBBSeA+wPsTshgClOY6LefBmC8MVwb1tVkKpdy8T9Vtq0YhtCBDDjl8UQnpmp1M7r69mdIe9viaLXJ4MTZLrW0U6I4CZp0Vy0Q6cSKZNcOj6r2udcuvNYXmv/evs2FkHnE7NMCoCjh3xd1BrpYK/qthbLbw8o1uTr36zMHy7P+NRUlAgtPx4VJ1nGcBuRFoUV+qEfq+oTXGk/yF9IGCxajpknHaa3iZ34s7yAVFx3LNkPWv4XSm4FIqzHACHcRxR6Sjz/yiPz8ZbXZ5X6GyJD76gP5xPswzhQfSyaWcIc8KnUArE+QPapCOz8Kt2ixhBjqD9Qymnsc8ObM0jc6arzuwmSxwuLAAv77fb8OIAFbYT1Pi5vi7vq5NTbqa7xnkiSEtQWUKJ6n0jaGtc8SjGNzjkCLntHRfBICGsW3y3sjOZLpMpgkmfGrfjDzzVK2Ctu9Dpt6i2j6cM6S3ccNXbLHCeGh/RPPKI18CZoOSHXZniAS2G1HLrao0xo9LeSKPctnqhRJCtt6F6iQd2s9Tdj1pqLLDaCEWsa6LgldL/m5D2igjGZDSJSmV6+XleavpbPwgM/3gFC29sypVZHV4VSHuVlIoKNvegVdu6cigiFAvuNB7nKNoAT2clBZUouhwfhdzqbOuOgI1bHJEfPmB7c4eL1Y0CA6U35FZceubDHjW8D5B1ylYB7kDn9JKNyTF48XKd/mV7pB5nr0b5rXPwLfQzlerWLqbZdp9dBEk7t04f4R2iup7PxYeZEI5pIXpPDjW00NvIneDM4GGQPfKtMHW5t+5BP1eOhS76TbVE8o0F+fDU0zKw+b6+teZmqjWCElWHpOBmqPWvd+4zKcO/VzdO2j2dSQ8YxmDmI0nwlrt6c7udBSUmRdU0PFQgiwHx05RWcfusOntrAlK+Vtg7J4/X4LaWt4RHtshKoVsNdwNT3vN2ZwHLIgDRovmwSKnMqJ7DV0c6YkhTV+cCZa24eWuS/MzszpMcAYzXH7xiDPbsKq5x8ZjjU23SrU6DEeSYg4Rt3s2/vPfKwDmb1gtOSrb/6RnEmbXg599GP24EDS5O7DRuDg2wFfFY6o0FZDPa/6bivgkY4ALYNaWcHDlp6Z9qVddJlU848BOV1mC3Jrfaf3F2RwM7e031OOZNdsP9TA/p5Pzimh7g0IS29LOV1PSdhG2mMllXfNAoArc9FG7DWArXYwM1IfB38ML8YnGVyV6A1La/j0h9aadBtRkaSX9KcxTtgURvWnnPxy1KyQuDkZ9YzD4Q0bJb2Vlf7F5UoRSBKtBJOjQ8aBBWOA+wPsS9CCbvJ2+mSdSOWW9Amao2eDaIKTfng+XzMLGluus4YfYSO+MBoHNn2O6idWbasEguCeGZde7fCIynHFR3+T/U7Y4v/HLsoC3c6JsiH0lsIGySxKHO+cvEOtQFTbbTRo2tx0/6e+PAjxuhCw+zp5BruYm6fHDmdTPuJFsUoQ/+mUJUWjAV8QSuSwzOvA9qoD4F6c+hOGllAafA0ijOqxZ88Kr9LkX1S0EE87iFKc5Wwgecmvavi+yaUGhLVo6c+PweSl2Jd6FMDsWZxcjs1NrpUn8/wtlXXywi6JtzXugs0DR5UG9JArHkOkbdjsJEyVq36/OWe62gn2fbSq8Yn1wo9bv93b0Wqy501ywOzwLaIaeYgY3cyX608l6r8KFBha9PV/ufdL9qNaCMdCZCCNputEBMmZJbmHMacDoc1kk++tNrj6p2v3xvRtsehHay+01zBPTbfFpTKi9zp5sGXCyKCdQoncWtSDyBDKBN5O8gnZgQedYO00miFnmgEokNmRVKjJwze0UfqmKMWinTSh4L56NSvlS4itPYNT8dHm0at+z2sbUxWtpBsjDJH90j1IVv913ILJ2KBOav5A3qrvCRb4Z68GLzOBKZJ+oi06bTAdacgDqiPQMQzPQxWLlFP3ybVHTeoSteI1iY2P4J/QbDLQ7FX7kez/DZ5Vb+8N88j5QZ3NzGE6yfjI4spL7reWM/Uh7bhM/vjYe2Ms2Adi+rm7kLpWZiGPXGt6Zdw0xRP4tx4f3Q6Sg1ljZlBoOarl2rN5+BDDLsM8okfXEAhgEeC5PhmIQdQRmPaudt+VjvSYmhIAunT/1i5HROGxTsp0DvbfMOfDuc1r3/PjcySQ8DUi6ti54L5XEr1Myn/9x/N2X2hV1t0m6bzQ2Z/kaKGFJyWi2tZTDgWElKmmmfK73voq4ikk+Esk0MTFv95YlbqVwL0jgcao3++hIsf54+Mfsg2+69pqp0us20mTN6OXDo6T3VcGhQ0fdSZv8pH7ealDKWCSx8e/b2B9XwPOSX079V+9vJv+eIdHzTQfIrBL4a39BZVz41HNtDTmwWD0wHWx00xy3nJjPlXqstO2AdmOtLSeSqhPo8TMx2aQkhMc1wRJxNaP7UhzURfxYmBILBudMa+sm7c3mj4nQQ17l0xIf1v3LMKpGLTGsfj2wyWVhwRYWWR9JQbxW4L95rgDZzJPcp7BYNmJyC/9CXt2yNE4pLagj9foSuX5ASavdRmhotrsqw9UBu1KAxxDBcqS+SEmRuu2rw7zpG1qHCQalJGjQ8aBBaCA+wPvmosgYFCsRi6R0Skb9LQm+vPCYq9JQjeH1yhNc/RXzF4BfzTcEyKWzJu8EkwhTa8xab8OYKk6PqOirayOf7q4CkT/1M8KQPUsE81OvQ1l840INL/i1k8KXEb79Urh5y1aNE/MumnOFzSMMYW1ELiHkjKbtkMhdreWpl9Bn/+vuTv6Q94aXj9u/jytdeAeKkIsT0u+2i9UcP98dRslmCzp776tTraTaeR7mePgYEoyvGKT5d/9NgwMUWuewm4JAflVWpKLQVG0ba9BopYBBXkSlnhkK8sg0UaZnT+zPTWJI+EHpeT2D1hOKdn3/T4i9nIYN4VaO1ZijlyJ6TcZv0SMvfsGOX2oQ9oc3thy2SQNH+k9BO0qQcjzm4HpSrJFMRiOlOuD+kOkN62tP4ByxB57fidu8Zy5yVc7n7CrQ9/kkPBLsjRhXiM1/zdb3JNTrOrFX7xLzTwgK+aa6oDURSg474iWjgXU3/syMbbpup7CgrePtPZI9ElPRKczmGZk76e8Fkzlqx0sC9d2E2IDUP8y+duAQzAnma5okDDkCDJbYL065yQzewdRDxiaF9e+U10V9B4x/psw0+T9HJ/OWL8i+EuMyRXBoenzyCaPeT9B00LDScMAA37VZOLfmC+7BCkyYtJ2HpIOy/sxkZgUpc9cJdgdnEgQLi8WByoWD4YKDNsepdLFFSb3a9ioX93In4TLg8VyDe01KqaeL4Eec03szqzFwgjfSZdwN8dunEDjt6bkNP69EhtI3Ho3zPVXxhbx8P6ssx77DLqvSkMcti0tZP58XhgRx4UC4qB24u2RO0koG0S+GcBMv2OiBGUlHK8s8zuneLVD15ZtnoB+XOSS8ZAjZJzE7EH15cgCVKrSkTNpnuPcm0nFKEMej1nriiD78UJbZhynMv2XvAgHstfDsa0rhNMxMZBnBPW4uKHnBjx3CaFd1sRdTRKraeUhLnTS9pgMz40IXMdIy+HeJcslWc8EnBcUbaGCf0s3kitrx7AZceEm9S39gxYaTRfNouTSqR8wKkmTbJLduwMhaYFhDjFzAnj+eCiJlAOHJ2l0vEdUX0iw5x+vyhh88hI5+Rlv9Ss5A42ubrohsRs8PycDw4WLTjvczhRyYkjhGLpCRvzh1w4HG8KF4epQij9JfW5/J+1baujki6ceVRhEYGoAjn/aUi6PQVW3E/qbQ/muYpjg0QBoNwcXUy1bQVYUF2ub4dS1/mnjAjghDBbnRH6mf6JUL0XdsvKiCwfDCD7fTIfOWEmJE4PvPWaKahPPxIWjQ8aBBduA+wPvqvd6IrFjAHv24PEx1Amr709EaKqEEyfJLQrT/TPjTVDg45BTmi9fplOn5FeE9TPL1ISmxoXbn9cCJmbxqmQc6wHiRGNapJDCBLWZR0vAVFsJKkQuBn2Cgzh+NKzxQi00lrmqWMsl+iCFm3iWsIi+D5+anpAmaLbzvI0puv6Dp7pz5mFLw56SqgSL3Xjb4fCIy4kIzcUnETykpYOSX5lpeoB5BZmj6ceKuWDanJNRuCFwvNrXo8fNXILtpQgGj8qEXcUnqKVw1NAt40s4SJaIPguaOk97a9eQ/lBr3//E7bCG5PsKVKx6Mho/XN/wsxHuwjD9gHSY05VJYxDapzwAhv2YJ2IZqsd2tdBE95NT6DZL1L1JWErU8wEieplrkr+NHFomPvFCBdVrdrMi9toFL+olJTgHh3wyY7iwB4rkkfGrBFyUQPC6eBVB64JzBFHB0bolHd3T/nFwDzXXaO2ekPMlsht/LLo2XdU1rJdjk+biDiTANU/kFu7KrC3rEks0cbU2NWD2p+DYzE5ui7soFum5c+AzzQdxMpb/D4nbZld5bK1/yUuVtTc+M7XHFR1dbGhIztJv4RIRa2TXzLvIuMVZcA1d7xZ185vtaTtAsXaBdyGPJp0cUMgx54BX15q5CIuYEP+/wT9MOWle+X25q6K3AukP6TuOHuf1Or97tBd4c5IBfYmqCVVQUIJa/9CvUZsz/kuGOizGpgNNkkcouUzBqc/bpzHsBzWXfvbY/Nh2jGDH6PZxyqpv5fBPYG+429dx0IErMGTf7hq3Pd4yqKjNH6X4VPoQZey/lVKJ6vPanu0X8rBIqQtwZte/QXaud08RaKwq3VWpGA76TISS762A2amwqtmKoBGOK0jA8wfRrIAMAqkMSNvhz+TsRwducm/V1jd6//4Mp7EXbN/EbpcXgXmt0o8gqrPA1Y1tfcWM1M8uirFPtTv/k1aN5V+Y4zGd1KnlcW/qdeR8pm4JMvHOZihclKyBOylWTcb9FzWHNMBX0J6oa6QL+HUSZwgIvXFhkcvhp627+FU3J5kzvPS5BOKbP+S/N5Cf+4mn6bFn6+jtZ6zhhUPlYoEDo37tLiBl1f6XnJusIzs02i2QT20dij3aPxMJ5u99nJgKUpOELVdkwsCJtu+2C45wQ0oU2UoFtV91CoYL+XsRKqmsOfplnZnkxtl++/2roqKZldgjX7oiVq1bmFB2+8kzHXGWagfH4DusGUQ2ePWkXXosN+l2+uw37mHF31p9QRFa3koloxlFEw+0GQOMF7GP1I+jQ8aBBheA+wPxijtZK34aLsgPrOsQ41HZ+W95QqG3VnUyh/3YtLFCpykw6oKgfZalqdQT8yd+jawUN36iagwVOjvvRP144M75vrplPIrW0eyc99/vJARPTgLaEPbgxjosU4xKB/KxbxYCsk3Tsg9v3plrXf8XbcqQPeCWkfT2Pr88Hd3qaX9PGbnEZxYG47RMU1Sx+A6lK1okMXj8nJzX3gwRQ96U3kQLAecOFfudPi0qH/BOuZK9t9Mq97XHw7Zm3bVuYSSVsvtaYthR2nxuXW7N53MaVP6x+3fRkNIQW7CXfnQel2U0SPsZ35w1GWZmwx8ZSj2fsO4YBLTc9AZ3Q1gh4DK2BTYcJtvknA1d7S7BRYa2UmEF1MvGB7l62b9OhdeOhUocmQNbqo4mOLA99Htz7HUMui8Fiq6smR3zD6tNN/Uh4i/0ne+ahI9W8i6yjCosnHgvIbmC1l1lH1QM4vO/l90s+jnRWAj2b/0fV3Va4wgfrqA/w+WKNNEUMgCcLu66/ehOJsSonXpw1VNAX1Oug9SnH/UBUhbD4ws+Dc1m7rdyNn9X5WTWOGXcJ1hb7kdTPBC1T+D6QuHPppDoIQYFgROCpqrXlU8O5N0lrLZNqxdVVg6zOAGLaS5boiFWqwzdrXSPFtbtYNPiCGo+yOORCZZG8y/BL1dF5W65rNohWxceI7BAZSe8jN14gfu0/KWH9kZC1ZI2JVs7zL0xfBxdvwbPr1+Nu1vvTqBU3d+Q1m8P5XDJ0R/txL9naPsIHRuOfeFIGEeOE8N7UdWimf0NiVg5A6L8MMJMCWzycDgS2S+cuupyHqylKNZll1jc1D8GVBUBulB0LtVinSVBuQOrHuzBRzSJ8DUnEzW025WGkoXDdX9Pj6jOXfBVZJ4kxiw75L1PGlGkvIIpHJeFH5Om1xNCBd1Nry/FUcl4eHx1IbHS+vwnF7sTdl1kR98l8EhbQ1l+fNEgiFyaQ8AlkUKIaoz4qABwe3LkeExER/TYrjGb6kgrXth2r6Qk4b99Hn48ILQTLGN94GgcbitXlIeZTYvelaPaS3LfQgKMptRpGXJM0buDY8KB2i9v1iO3EPucqRhHpW1JyVwba2+/5o3kdtH1f5YZnkdZf55814PuE+9qZd582iJQB1RnbZrKcYlW8tGgTmc6oxjYadGvbWyL8HQXm+bum0IVE/3LGAIddefXDwkNtmUoZwkLwEXUnZMdmxa2xzuAvcumQEsKYzOkh6EnuZ60JTSE3WHNSE4xzVlYpyZyiwWS7Sozl4eaDdBt45dU9JCjQ8aBBlOA+wPwNTQLivU0ITM6bbCt/AEpTC4nrsT6+e16wFXBHo+ZYltPgWLM4YTfhvhIhLl3JAuA8WE1JHY59KX2r7pTQosIkclwNc5dSubXxApcbjeRwEyAEsevw38s43mqbn964lHrzdRrsBF71RyFyveiNcEDXMZRs8ktIEDRlBOo1IclczYrN63KrmM3WIm7scAfLrtlgLuFUMm1o3xgWlKZPx8EsFs309uO2gE433gJxU9LsGOhZW5IHRSZEnQ2In7ABgoXkbdLlnHTSUUsknqBbE0GrovsjHP+vzSaLtk6rXG1BPnNJR8+kNR/mZyapy+98nyK7GRqkvdqtQsQXtFDzXq6KllBZzRWcUwpw9HITRfxEMXGMIh/JXiPIYtPshwApuMgBhHcUVnGo1hUnAlUgSWCiogf0ZlaBh94D6QakohUke+mMkyhITf9cj+ecRqRWT7J1Y+9TQxfMW9uKn3h1VVG1qXk3HvMShktMAX1qT5ema0eLNZMhYEJmT9xzCYNOvigLFexxXdnc+3xpnXHkPcyRXSYKuNuh84JA63pPCwZrlKJZV/eETz3pLvqGjPAAVgC5Hwh6hBLIBlfMaSajQAWrMOZBHMMkNLGYYO34ErhKT6AE8JUqhrwD5ByI1xhau1yiQdlip7c8Beqs0DkABbHdmFWPnURykhot8y7yyliTVUnyBNBEBYRxblXjBCP7iB7h9QalsksXwpmcbGbHbhIp1z6lNORwm2lojzzfE7QS/FEPGGxdxuAQmdGCL1R3EoC5CZSZjg8lpj7DWSOU+TVG4Yk/EkDhNc1NlRbL30aAI6RdeZP4tj+8tCX94PshzxDSajYhmdnfx/16xyxr7SS8DM4BGSnyblb2mWRmLEFoSuE1BwhCJxk0brLkqNbRwFww3QD67uyEC/Q93XkwOw6Wjd1lLH0cMH9lekV5K2nsi9mmcnKFbt9NthJXYW3wJM3cGkAWuWNUqmR2wdtEBVSG2qdkp1E6WOhLzkF61MdqyQcYYeTN32JI/u11N9o0Any/Fl6GwY+mRa7kcO0B6xgzRBVL6kt28kVNYwrrmu3gApw1Jy1rB/DLH2sB5L4/PHOMBUfaTcFkXZwGAhrVv8pKsEZGDObu9Qad6wkINbLEsEfHWgAUwCAt3XkT5ROuMF3XXYHDqNU+iQX3NuG0RSxegPCn+w9CaS6UzeQraw72XofgetI20xDEU6+SZPoKeoAvFRPYc7DolUQP2Os840fZatpHaj+G05j1lxbbZr9Dj+L02saOSUq18Jr6TCQ1I6jQ8aBBo+A+wPxrZ+WChC/qnI2Ul+zYj7Lc+1jh7utsmIiY5gd6GUACnqaEETyY1Qfz7pjeNrxfNyBLKGaBrhxMqlEVQB1UoVKIJdtw/GT28y1WsHXL3yUZ2rhqOEBRiSofrEZd/cke5npGoAgj/Wn6WWj+0Jk7CBC5VX0YeohTE8KB4de5EC79MZ+VTqLTj5e2h1s/auwcU1S0DBfEOTb1hawJfEZbP8L/GvlCgBEcDgLYoKNQhmJU+5sD5Flhe2kTv+B4v2T7l1aqlGIC/ddICCV0xvSFaXb57qvGSh3eZb7YeflWta2/gtUDysuwJymn7POQKmNBUWyo2REwhPVhkGyodWCuAf+n2wsrgz7gzNPJst67fG6FyXu+bAF2KKVoVh9ZJHZ5AF1/H0Z8HgazxLNkEcf1kLfJv74xFWr1ELf3uVs5Sj0l/GL+fS8HghrRkBFfClDzKEmpnoDOagna72L2KOygN8KbRJy/JzKK7UngZRKOqvL+N366+S8cZhEKP8xOqAt6CWKTpZ6p+8p4czBFb7oITL51uVD6sNjlVYfp+s7NKx1fYrj/77Rkvg38bNIivLER3wewML2ORGBIpBqe6ae4svwWsWvtRlTukdqPDQ2k+cjwjaOCbBTLeMFCbjju6CYD6Rjx5B+8plqxPuuIjwDvru54egigG8QQnSGJv/g/7rp5oS2DCLVzAhIWYbMOQGVpYa3QmlHtOBVesRdT8JYMQQyZzcIMD6gHy4Nxvb1dx4f6ECNsNbcvmTZDHKsf6MjfDsl6i4QpRGiZJjh8WLTMiTqJXxnL3xLWTeyt/nWs8HnPg5GpM0sgrg6UET2/OGDDuA33iOMjmcE3HFwpNmqXNSh7EpZzH2n2O7dQEuTXe6L8EH37WVLG5C60gsH/+n1brj8MfvuanmgUAmX/7RRvu451fz9/LnIKb42mkfVLaxwes4MPIXH2pvv1ivfPMv/nCDfIAxw3/8QM6rMX/M4Hli+wXss/BMDXbILd2yMXsxOwTNF91pNEmzHsRlk74UTjo8DbxlT4+dpYO0JOHldJPvkaX4Z1PeJz8vdhjtjqNCkejvXtreGWs41Rcs1pXMz2ixqHvURChvI+Vv4utrrNmwkyqPEG/ahAy3D6LTsTWkE3uE3XbJxJadX7aaIrHIQN1Xsg4BBzTzE2FxkDkjt/ojOeppj6Jd9T59gDq/9kpfphzfQCPxqxwL42qG1+utt37OsXXCqr0BByaYSAa/H062V6P0ZCFQp/rQ7L3rV/Uhm/5wQgRXHRYexUQfPTcphhISjQ8aBBsuA+wPwOBOscp3GvRa4czVAJbhW38PlKNWzx45clRvmInNtB2/fawyfjgeR+e/Ooyf7UgZoRzzSb3ir9qrzKBF8pEjMDep+wySJhuqzGSqKnW0pOqTsCgbYnqgl00nIZk2AOTnbLKDd8zmtlO5ZeHb8Acd8aWkvEBMknJlg2iGzRcju+B1APYuM5MPugUxSktJu0eautOKyXTWPYGOI2hmfdc+TGX+OBRauNppUn9QtSPiYIpQNsaaqnDNptEP5yaj39jBJHe6tghNvVd6XwPabks4tjQEdLawR9061ag81duy+3OmuCgJ1rFJytgElVGsrrhHZ3iT9AG8kgKhniYJwFLE8OgycTRQqbBhSlMLTw9aSeeAXEkb+obul6FOmZWm1eB/BhqSPI9/oGn16fHych34cF/AR6C+nI9sgNY3LPfFknPGUf805wb/oyy6T/kkVXo/AgMZxgEuCcD2SiPevLS3x4G62w+J5Cm2P2+CnFUD5lGUUkYtFaqlkto29he23Q5VztXLUxt7rCHmxybS0jru2BtOZB9uNLUnqZNaT0td0J1IhFY3WYfbBNKHfJpQFCSy2L1qEpDSo9W7q/EZRyC9brhTnnVuhK+t79bg1BEpBZGOgISDctvZPhy41I9smoR9TtHeOPLePap9gg2oiMfCyjzLkhQXWHEaFanEWc1lGtoLse7RxQha32eYNrHYjJ/X/2Q9nVcTJp/bsFdnBIO/6W6EchKn2K2E/QJ3erIP8pTeV/XSHKCCFY7sMKy8mX/f0EdEVY09KQLgL3uMt8An8WHElpaUrm4FJ/69ygIGuIJAh4F+9NkOvkFq+CCHBvFj4KorLFhNUNQavNKdldDSX8DNttwHoHv07j0Qy7yuhFDx4cYwnBUvrqrf760pRWMcJ9jgy1oeHTp6EovULwPf9FgS6uFaQgBB/5hiXgjc/LlR7ZKcJjz8/QFYyRdS1sj+uRF6oVPUtfckyPf7j0P5XgBUs1TBkp4pykqI2JACL1jQP3+HfcxJ3ud9w1U7eJ5C2+RnYDEDTGC99YXr9DEKf+x0LYDizoXXLUYFW9tMUz5lgg9lubDKZ/g3jm45eNnnS9a34GkMy0G/NyeZLcj2Fyvbr8cBnc7HNQPolFg9Hm5AIF3OCEZWTYXoL8PtH2xhjaWYk4dmzFYU6kyMToWgVCuJvWqN0YHvdnj4uLCo9yJvfEjmNOgwDdGjl+67syEcmN/NqVXAb5Ra39ed0Q7sgEgrDISaAAyGL/VV01MaL45d2ltxz6kqvgm8xVF679ImjQ8qBBweA+4P8Ef0R77vOIE9K1iCtimU4eIgbDb4IOo4vstqp5VHut8S6CkmacFvAjA6QauD4FI7HrYDmO0j1YT+UT9Jy5cf76Fmpn0aHZn2J0HLAk9+ESI/3Oj/aCmXFd7EFuHEuWLaQPYaP99A+rpPFpUj+Iqyptcl/JUR1nBWWoWvOuwhPhYw4hlbeI4VZJdXaaGmlcKeDvp3k/v66ijutn76N5Gj4vcEzU1gQpzduzANB4wigC0BrRSGUNFSJXSUFdZVBQTKnv/6awlIGAl3LflqNkC8lCP6mMZooqZdxj+xTbEQ5ytbTU03GktZvCBDAglZxZxKDaWLStt9kf8AN+IAYlXpP1wWGuCng7G07XBqbNeM+/DBsaJm1kdfG6Z7xmYG6n7qrWMwO3+sZ9k77fOB8S6kNwaZeys2loMDaW4O7NK/cwb32pJTxq13JmtYz+myky657pyIDbTWelfERmI1rxPBqUM5y4p+E6YdjULJeOjnTrvejU6Q2GA4xkEeqOnAkpovRbh6rjIKbgTgVo1RBOigaWeIQQ11ez6ZoKkSfF+sTozPd117k/oF3BzY7l7JoZR2J6B0zumUroNVqs8OKpoFKnMDE6FhTeB1fhlp32tYENk1RHlh6fc/c7Fd7enUDzT3A9pdICxkfBx1k8DHbn/jfRrBbSoOo0cPyH94sP9F1hpnm1e5S4CgzYafSZMjpHOorWl6fNoM6SkMTf98uqCvX0s+hO1p3goelJFz3MIq6tCJHtt6S+ifQcYsBl9JiLragkxSkVwYVXs70Lx1bRBlTMqBRlKbccE3eYWeag8WokB7sWBogpJTe5Wk9tPlsF2DDRcO3sr4PKfA/jyi4fUVZHTHI5JHvnUfScDr5KLB9TML7q0BlNv0jZEFt5h5JKc+t/al1xl2jp6PSjfiMDVhOAUQU0lWOleKyDIEqYEtdStMD54F9Z52Pca4Vgdj5k2bYa5OorKqP9llKZAMAA+ND2tdBlRWrwLGa+Z5lR8Oja02QD9DelDt1aYKU1BaGwFHOkjXkX+VIilf4CYLDDeGLZCo71lmOJQdeZYwgwICaOen1l3FK0qnD87jJwb0BtCYZWHjK0gTOD1dNF9feko9Jb6wACHKiQin+35rny82NhM3m2xoGiEsD9o51C6+9xwUf8itpXMkH8xaJKVHNR+CUHyVhmZesQ79kphVHkSSD5Rcm23dTBBPc+bnTKp87X+gZdOAJc9tV8Tb14DhakHCqbljKDrLBqNzLmH78OliiohkF/q8zGqhOC/K/rvOEt1i6BwSOo0PGgQdDgPsD8asEuo2xvOwBCuXuW8jL8c7icq/Z8hdXoW3plhlFrYaBv0yff7J46HUWE7fysqxCUyUNxJ/b2kVVq1AVZq8Hg49vitDyr/zmvBSw4mF//hM5xQSiXVIRn3HYEBUROaqcjHPKE401V7HIfssswG0gLs4jVq98AQ71vi4Q5/hD42ExI7Rf2vDdHJLPmhYCkWlJHHyxkMUoCCo5IJzpmzTbMpX8Vc2GawsH6KClzWpC1w2d6nQmjM5Bm2UPfvg0lPtziDLsl6GtK+pTcNTQX+hpEeWhxZbext/opgGeajDX42bH/tU8zmylhO1bI9ZoHtw3GF37DjfGCP3LAqhneeo3QAjXUAQMupxGY/s3eKu+p1E+A59MM9aMLnztU6uYRsTRYB5ORUVV7ErJzPikN8gbE/fSODZKOwvXsOi+rnxJtJHvmSri0uSXVgDccl8sBXsCdkMurYv/JblH5gxw/smVtR3NvvaK2fsKNggBh4+LywueKMBT7du+hmVMMvXropaowOg9vkeFDbr0OqYKk9D4YGUNGrVWdPCp/yIewVldK+YfCpUAyK0OeLZZU8Vmg4qe3ah2qY9wijK3Eb/J/st1ubZNPj9VjCOcBMvUON9skhQzmdJIns6mWDrw6yTzlmCJxQJvnqZlYiPgC6uBglxpw1teVmjmnO6H0GfkjTISOTH9ttnA8XyenSAJ+PACIUJo/xHpx0M59ALhBN1offV63IW2dnOd9stVkrlYyHw9QMbdqgKRRLaB0xb3/BSWJ89s84dLPx3+Dhg96190B0WzQfn7vBytuGeX7i3ebpF+cDCcbYOgXAnZo+at4/hOW+UlNQCpyidvF/InN/PZ9C5Ek/Ay2rWM/X4Gzj+bANkdaj5mbGsbk+AdDajZicKON5ig+abJxbxpc5S137cZ5tghbm+tHrj0+jKiCEmhgKv6wKXmmWeMQWxQWmVioJpPbXtniSmzMle2TmmsfcTKgXzi2dsyCN6Y+yni6tl67/ScxpG3/xGXiiqj0NAmBK8xiVjvzS+ins73QHKpwntcnUTGo4uTm0l2DnGb7cPBLSEC7PniBWa8bfXFKDfO5Fj1LBeYRtQMT19VjKNVo7NQVn/XxjIRQDiNt8LPNM5VXMQ1+GPuci3UYZYCtXS/VjeJg1ip7MlEcqQ0toGT9zbe4cdOlPXvBAhjwb3X+zLRvgeh58Isz2/AZpuE57PaBE812DQHGA4DylvB12Vv5+tfytWESxj3ApPqv4ZHhXOO5+l++rlK4/5ZrFa+7n7YAriIyhSVo0PGgQd/gPsD765guTZM5mt/JhGLj9jnsi0X+IMraQ1ErVNn69jCDnVyQ9TX/htk8bVyVYKOAY4tfL/akURG3UaZ2nSYFrqVh3F6R76H5EbxVI/uA+ic/Js4XuoKpMPmI78aC8pVG73Xs7Uj1DlRg5QyS2vMbUelsQIRTlHtiXyP9DMNyFnACnMbHXLT5h+xngWvFYT5kLoKCO2MQy8ZpTDDuhtk0PLgDASZsRiK9IY7mIA839ZjT6QsFGKvMBJhmUCsgPtiyFPsBjxCtpKywTFRUM061IVMtDyR2JekUJFFmdPl6+wmWHnBXSHZB6wXJ3XQLZ9FTg9D/Syenq0U0vOirRCIcHqQS+1M5sfZ63anVUPIzA0eKGhTWz3fcIen8CcNoTR461bMvAN/cl9SpBe9rsMK8BZYcM4z+7thD0KfxoLWK5GvtJbwS8EVEhc1cPFRPU+edJVAoCQgjva/vIfhKtrXbDOzW9DInZwaD9YZ9CRyieCC86QnPqp46/NXO/FNYCmzFE1VeO4T917yDCsdx7aDu0oBygG9yz+fiqud4uJtWDnTQbGyr5rNFXcBgjgOT9vuGejIt4mF2LBQlBevDv5yqgwI6523vu7LJt/IaCBWqwXMVq7fMPs8pjwZa0xnAE9NIy1pzoywBzOGd31YHYLsQGo/Ulbzh+aF2SeODntzqJG/niB+ymcEnh2cK3+o8HPYdm4LejdlWCCW9F7OnSPr1pkRPScXhApgJYGoimRjZ/sVbfUBmvJ5+h+hcIwzG9d6e+6yhdLTylzRE2ZevKVcOMXqy9lRRXiRaHcFKhMz6smb5PksGdo/wBN3e4MbHwGQOkv4hd72VW7yGA976h/In3o0m0H4UmX62ERg67cTcJqnXjHK/l1OjgD+PzCL7wz/sfXKFwcExlUniMo7heTtUXpF/3YE42McnTx4d6TbPZXvH36OAZGfvc53J+vei1EJPKExhpSGLK6j2NzGYk4ji8d0pknEtlkxcmET0QPQT7XdmpLDxumu+Uny57/MYFT9bOBWdJ4ExO4cR4PXY2m6alj6X8Y4AB1O/my3+TxC12KIQ3QV7neWSTsI0iL/CpMYAk4Zo85j3RZmFk1hGAH/qWHWFlrHIZBukQVQW4I1J3Z25lF2KDOk4bq3ydSQz7zs4GXOw8fdSw4QB0B1FgexGcPD5le6AexjIL+e1EXJBMqwFIBtqy2G+SnNjq72/7nlJ0Ve0oLZP39EqNyQd7k50AFuoaB3mt9kCpQeDVXfKL+XODwR9pQsCbfUejsw/1DVOSoVo0PMgQe7gPuD/BH8EULBj+AocnsdQCPEjCXorvwN3xbiJGPvsIx4lVkjCpq0DbFPehZRtqJlk4zoGc+Pyum2HC5iJefcZKuBq/y5NAlOAU4krj2R/L3vrPnEKW/25dxJNpMknSZQxLef1YLUo6DLZSPX9aDdhKpVj/JOnN5maeirAWcUgCgZxWZOiler9Gnc2zrY8DnC/RmNrxxwi5o1iH+aQ7/qLdAV1WO8Gn/mBaCZM2MX+BddNY3b4xJUuOwK8uCcFxCMmnQW2o+Xcb81D+YpIEEjCXelCYusBIKVLRBEhHL2h/L7OWju1Q6f5tD2T99PZ3r7LozOI3mMu9xBlcEs1qvNVXpmGPA2zhzbPweOy4ljZ0hRkDHZ2KIUTsz2s8oaPv7Z0OmYCdN+gjv9eDnulwIBNplfv4+JJas6CbnH7edG6R7bGLiIPPkVQnKOo7cYWx2yEvhUmnXgf4rxXcEZ6rWvJePBK1AJOTT7xc1NGkryb+tKlVHicKxB7u3fL1TO3zVTNuTGcDuXyOgt6JQzhd20CTQUEEi8n1U6XtsRk2KzySrh1uLbZVFwtc3EBHdbS3HV6dtUJ76OD7pYRVYpCObcvX1dTRfRRDeDDx2WDc9p0+dEpG07SMBiha8eZ3L4LGwe1JLwR92iTVpUKTmJFF1jqnlI9I+jL1d5tiHFiIrnx1C2KrETwkif+MUPjBHFm8HWmfLVlpmCdYZkez9pI6tbw/ZcoggKTHAocTQFTWBzfavq/kC7cLXaPZJqJGyzcU82EGJ0lS8fzV+vLWx/uAqAMyeu/V/KvjaULsr1Wg/MJyyvCqqA7H0KSNuRHwOmpJlJXnlT7V5MZS5bSwmihpj0v4BmwQvZebFCfUUylfKwF6UzVTPKfPRsXWKSrYoin9NC7T8669c+uTiT2m5WMqc+/hcNqeS0tpwOyeLHAAhTeLBZfwwH4pcgTqwIyqMkrYGkauA5WbE3KDDdBuUflM/xlDmodBE8QX+K2iLXmXf+MWzbO47FdjjCzMB6lSbGC3WZvd7zwfbXUNFvqw7lHVMWFw1H5wEQfUHq0UxFzKqVH43Urk6ZnNwJkYq2x+UQwvtTJLgQkQh3ZN0LViWVtGbM99KojK2iKVHFZ4am7S/pi4X2/Tlv5/JmzPUBu20YHJdbhwPYl8JYfq05iylbtF3TorISSTimlzTNNIgQlLRGfqC40stVV3EePQb1vglUuqXVvMms3WTIcvqGj51uHEPx6mpNyNJkH++lJ+PhYDXwqQDLdgE2hyqonlmlMCJEEYQT891SIg+hxw+Io0PQgQf3gPuD/BL9EUKVSzVkHBzYcRZgYlKPXin2EdsGvzMMVbYOumV1w1QGjHGXeux7ogP9Eb/D2LvUIRIAyBN2OiYxyyooYuz4uhxMfSj1H1gbV4ARwBStVW+KWEWcdG2GCnZAk3l85R9oCRIa4CFpfo3HEurVH1YG8THMJLEZES+07NbmxDv1MvsHQv1PQp3DOp/rnYHd6yC4dhr+btYvgXkpSZopA3erCf/p9Az2nugMyfJiZFx1tFaz8oJj3kLPXvqk+XlUbyIfhzwuMoGMexmwN+QVTTOup980uaOLFy5Ej9+lO/5yemJRHrguMOg938qM1ptSRgTAaUv2tfHF5IJ3ZD8Dpk+KAcz+KDO8kHuYJPTQ26G26C5TxYdwkAfBcqtUGTo8hJH5zyLoqnppLMZBDNny+QJg5QRW4BVxXGTV+bZknMDuUWjf7yMcauzd/1EYH72Bm17QzlgOLMqJr+N6Zt0Nvm9HckV4Zb1nkgu79xCA4Xt+I5I+4qa98Ujnd/FquN4Hj42TzzxlvLuBMucHlKnIwYF7n4IklEr50aZApBSfIeOMdGe084+I2ftqDEmH+SzwkxxmUc8FiB7HgYLTh8u4cXlt+vHLlnwM15InxLa2P8GcvvcNdsvR8PimR9Mw3KubKeEoKQhIfwJS8KXjtkjqwgdNwUJNttHiQDk4AXtO6qU7mv0CfakAvJusRlVs0LdioJcNer5aO/HTXB0H61Ji5IIxRWqyzm+daFufy5xxueU0gXdKb315HIXl+dGdn8U4QyAvGFOHAXZwhrbv11zlvddUYo2RcxPLFH6VX/oCrL3YfAoFcedNxo1Bhwr4PE6ALM3LZ+MDsure5vxsCnEzZ/kbYx3Dl/uklPAzb/KVWk9GJ41MwGGCug1x82ImOmzck5HeKAN0MaRPf7g7umDsSf1Wv+ezPFQXZOKljU/gK0bV/F2yS5amfitEMeUzsnbJR757jmA6lBqGy+yWwLZ5cIafjqEi1iiWFNDlH2A6bYZRg3GjF7d1HXVroNX7qpwEV6wgC9E3zXxRZ2X3BePjCxySCOSMIs4/KRoFJDhdsr7astw6rmTn1P2sxY6DFOi3hA7wlS6w2hrqIFfFF84i6Q9TNZCnDFzVZOlsTet8fn0V/4ZcdRVoW+c0FGBU0StZQVkHzLseyN2Z+m3R726Skpfqaz/u7yfxXeY6F56p0AB7DATzWHVfm4xtfrSeenGyXBAPpZgiyKuJjsFfgJJAOxeauytuwkRv/mYA2CpJqboAXVp+EKGWFIFZ/dUkGeNJp5bZtQnDcjQUjqNDwoEIM4D7g/4Q/RDwSiRlUsK8goCWs2scrobJl0mc19MFXFVzd7Hw+ExM3/CuttHegWsYk3xHiQ3csD3Ij9eBmr06u7GrCE7OaaKjg/SXG+9jCS9Fgo2sZgD3RaDtz59JrWktbZuqcDZ7FKtdqzEKXSi+cNwf0bhDFcGXATVVYBN/X7lkhHvndgSkbb1svLLxS648cfwzy1cAOZB+FM0FY/xXPa36F9qcTXtmw0KKmJEZ+8XUpA+WP03cbbiKHC2ItviaFx3r6N1h3L3PAxGdgJ9KA4qHoyBNmVfVNxTz/HrQku7PmwB/6toAhVh98Njmc8Nk5PT3/T2m9VFOGoVhDscA2ZnYiiHV9wQRtL4hYe1koQLM4FxtUuTpNqOdDUQWhIEGF27HEY7Z3vtEa3z5PZ7uNW7FpPG0014LcDdO+aW389Qihdb4NJHvqlkmwonKyeyF+ihaWZHOGl8jU08x8u7Bh7RMXWApVbiJIBBkrIubMjbz6rexJ8G/obcYFYS39K228DW30qrTF3bADauFmHY7uoE87k5nPNcOalt0UKrdG2ipIdN2Le0ncbGiCSqiYlDdgczVfaHBU5nuozrdRLQY5HF7HhIkvJ9lgkaJ8QggkWaCoGsvS23yUnwsURXE9slAmq6fiNvYtSUXONekQK+m6Iv6NiXVwBEtNBLXwn3xvr5BIR9axaOqtr5WTz8Xk+DBIcDtfH9hXiDujo7f++7jD/SPNKfIIR+kStRvYDXrHE215x/ppg6CB6mz8jctquIiS7PSlPdpMwu2cAlhBf3EySryPXducOdR/uaiX8cGqRPQJJG7asvMkrzz4MczBBd/TsU5wWtIDP85he8cSpO4lZukkUH4c+9uKHMyYBp08EjAL/T85eKgvhTFuvXLN7JDRXhGnTuyOL0WF6LG9qMA/7aSbANREBdEGL5ortReMZJKExFPbP7qNi3ENtCTNy1f6Rj6GqpzTU4yHQTprJTx1ghz4q/2PCD5JwLn2zbLGmmz+1mkURnvsDjD2Y9KaYDZSCTEoGgrZ/yURGj61alF5WTEysqp9FoVEOkzaekqx11yRzIVXyT1uLpje88OddcgvaD1FKTgQy8VF3zFv2yKGfSioE431hb9hOF34juL2rIeHp4c9+j3bjpoiFrLV8TZpOb9Mg3hh1nPS/jGQB96zmQ6FX0oMSy8/0ndInfhFkb9+B+YMms/QMdNXQtreM31R+o2xGLaeTm3tv/hq3iWXstIS6SZvfSNlocermjYwtdoxvKdzDipcZe4IeG6aeIdo0PGgQhvgPsD8DNqZlwmKli9Jpyguvhaf07BBXWt7Z75xIyoHnSIyIc8OB7dIgrdi5BoybLn+/9TYVxfF4NL0487YOA+e+o6uZcBVn0+HZIeTccBcpKIk8wqEeoUXtVNOzRMpEPT6yT+4mU3pvK/NY4mpnP/KUJdc/O/Vv0aGUc/Qylqn3L0/7umK0t5z5+zBUHfyCeAAi6x+yPHV3Fbu0oM3/NLxomU8wp6E8c16F+s0WitTd2QziiLbNu87j9cmmJPVUvg+/jK64CbWsglGMxWUsR6oFiq0FLmBw9aNd+Ycy2Ic89DYzIftREaBdUtcNXn22BgcZh4xFu6rIAfQSoE6yyr8mcRzA9OXRxDWVT4H4VGtLg0ad6PUHt3XDybPDCCnrcnWuRm7TIFYYltWeAp2hc5IaYPOq1b3S84V6WTN5JlGumIxJ3xkDFnxapoq8sXwdB/9wCuc9Ati43z6nzSm1kmBoZ+40z2prc2Z/65ikhI/ae1aG2nuNhI/20NFGJXRfs4yuaiisoCMw0uUXEJmqc3cH+oI1g3I2IwcmUcTeN9Waos0mi98Br9++XUZLZa+9g9WprxmGp3ju4VnbsaOQx637RzyrC/y7qS2oHhwqrhmML8aHVzPTottE9gxcZYT7TDBB2xF5cR3g+k7b22b+EGBTOorTARY7JfabTXjgRevxgOxf3C9qa3lIjJPzLo2GQha75cKXsHZKoJr0QfHxOq9cjI8L3Exb+KSPsGW0wvdUks8vGWtkgJAw1zr7hzzMzrPbIXLWsYZQty99LX2kWOwfyYBwqKzN5C3OYTUUuNM9DJPwq199JU18Wm2WQ7PkBrU6ynAy1E8sQugubpcVL7Nz3EkvA1bGhYaHMzYWVKoqtlZJ61bOA46c3rtmvt1JvdQubqVU0W61qI67vUfN8z/O51UJhExDub5ymI0xKIkf+BCptp38JDdLBVK1bF17QHtiQ1GWxxuIiHUiUWc8VMKUefUnBRyfFTIIouQwsYa2//0TBy4OQL5k251dCKHKTF62EPW62JeGBZlTjQSczf6vdiphmlV3LyPVr+R+GdREcmy0sC7kpHYoBqsqvwJ0o93roqd7LtjpvIyAYhLyR5Y9gP/yOwuapQgGvV7ojAedlsow0feoRfLUvrGfxwqP6fXbN/EollQoVVaJVPsKtTXbfnAyf3XhoaVvqgPQiGGyI2+8Uov0h+anvM8qbk59v4xBh/m/Ag+qqCynzJ6gvCsq/RcSECqPbjYXKQmsbykxjGVuaVtXFcfg7aU0BmKmk7wsSNo0PGgQirgPsD75k0eomTv2qqMkd5IoX+ji7l3K6YN8ywWGH55uPs2kp80FJqp5qYmYljCFDb9UNaV9iTSyT9O//Zh7ljRX6m1BMUg49h4CFtiqGxSEnAimhtaiFCpC2MNwcXL529MsPC9X0TW6DbjqybWsLm8SkfbM9/FzS2zpEbVXUP0l5vKd8PqbV8pB1Ik2QPTlZ5bs20HITKhqNrJ1ZbOgBg40RhN1YzXqENtl12qY1lTU0wA9cHnifhMHcKa3r+zYD6Zr0if3iRaqfdXy0c/JgkNyFn2MJDgJdVyQVbQzbjkKDUw5aCI0D0O7yoNN2TcHfRTnkPnQTXIeeHUMxM/10pjbi2CWVzRuNqA/bRmoYzHhOmVD3au+VY6T1AduFbMTrUETE5X1Kz/b4tn0Z/pffDjkPXmVjLWJoaGaX5ohYh7tR7xJnsXJ+OIK/3jAVhnt943IeNQgcLstg34DoFqBUMTc1g1yvXzrjqdFDeP0Ff0oWjs2xpBHkJTHARoaZ4Myx6Vd23EmFU4Nn7UtxbH9cae/FsOL8975A9VAQd1e2oV/UaJ0Pd4fiMiPQxMocVUl/90bL6r2PDHWSXT7riflB59OdckzHP0/DvpDC4DhbkV5zWNrrekbmPFZ9mvArS+gPaPgvczdbjcLZcnkD2M/I5Df6/zvIHDU6l7gM0ziV7KGvpCbkO5ahNQxDXmbaCRoJURgCbncHiTP2rgJ0Qo7unnAI/Z+GTyaZKpR8D4/VhWvk/QgDgn8pTQYUo3itozcpbQ2S0Z5ZNbYe3j9POGVOxN+S5V1NzhF1/RyTdDOTECM8t6kGsBfK3ghSvOslKEdMLMWiOvlmk6TaH7w1MAm+JJaYUlPAx/k7fhTWvB9R7fDZ4qVdk66QEF0Ht9ZLVqH6xQF3U9QaOQo4VjKMCfTx/83cv6Bjv7hpskU8smhQNiB/tJDFntdzaMWuxZ0yGAAyyprZSQiNYh/PgEhuMfM3S9D29NjnxsoRj+T+hc5+D4RSM77WoOuXbX76PYioMLyuQgH9VdgLGBESRnb8maLk/mowe+F22RJF7EradJu/yzszMxceDvILeUJEqyrnY/ZTO1+w8aig2jzYF70ATr5JuE5W+5TTFSyOdNGdRJK+aGBDJcN1KRa6wnfL0nb+X8Rh9C/HR1neEzD5C756dlI3Ypy9ohToKqFRAHXxZFz3ZjBbgZkWv7/zgTrWj6XDbgGvxhNI50nx73DHZ03T/yfW6kwsC0vX9JJv+lLVsAP9MCN/56D3GmeclD2lDLvg9dL02gDSOo0PGgQjngPsD8DISld1rqpDdggT00lR9z5f6BwtuM5sjo50jd6PQqy4pgN1fPT/tjhALP2RsJ2xR/7LVdC4wMa4Np2gB9BMFHQbqL9Srbagszi5Zl5/9relOEkjJojb8XI9u/TMjw7YIW65+miVLkmeXoQDNwqPVrHUdvx9ZFjMldUdWwZbCw+0V5jDK2kgIthQar+oP4Jx+QUkAuBVhCAoP6cvq6cgxN/S+7pO014X1taMl9fghziYluVX6i97h4pGW/bn7ecIlvspJjnSreL0GDhogTHyeP583vaHPWPFUn0wQ1DU9waRnVbTcCoKXNK0q6W/G+/FYmYlWBazs02xKU9hcWzHqOe87nlfGnhbieAnKxLLsR41jckGDGX04UoK4LuAZFj0wxliTpQ/bPw5N7t5tDFV6V93rtH3jN8gTPdbxFkwERJbwO1i3A+Z12f8sVhFQvSCVFXa5hYJnuLUbPtSl/IoizRuLtXhm7MBofjt6U6WKrkQ63ZYxDSylB3xSbY78Jjd5Bz8oq07g5dlx7fga8kULZd4bIhXdaZY+/76evL9Ogkuv6FQxYmDiv+Gxx42DmKMBOc3naKWfQ6KMh+U1geAKufMJv2acR10OF3c/dlYSFBmTTK9Znf8rVnM5mfjPHKX8rh9LnR+euz+s29BYmnWInwRprlCwZQ9VgSEr1o7OjqG8S435QWEQPBWhHiGPC5Rl5i1PU1IYTfc1rKViFshpL6Y58BWyxmmnIsTbV1mv5+9dsPboEUUeNhzEAjT8H/BXOxmo3hOcdjFOL4iUNxCmNH7T7/RtnLaw/Bu2AvW9/qw2StaQzKLf3RuvrvfewN2PZi0GeBUvim6l8CkMUBmEge+8aWepuBoC6fiNcgw7X6FshzhkSFJs6SiWrgIUxbriy7WhyoXkS9p2m0ZjrCwEtLV4ofPambBgkCusLPUFOArvwxUb4MSAUAqeNqJ0smbld16U/gNEXYmQ8dWZNDQGdQ9JMz0DogjGBaB9oLtO53gcXV7UWokmTN1mSYleyGGfLDs5lrgmeVlvFbW/ONYw5NwMOH52cU4DA0BF+FyWyF0jEfYzFYJY+malT7TNtI3wPgh3gGMxzcjVaaQljHHQHI9VlHF+TlH4N1qss0KyMnQDIz+nRq7J9Sx0y52wBzrhtLvYbSO9sgMqoLJEB8iVBwYZeXvM//Ly3vqfndkdq0VClOLMbgzbOb35UCsBJWYKksczKuKv8MX0sGj5V6Xql8XE4jAvmpST0B83jgj2co7f1JPUJhLHuD7q2sk7boSWo0PLgQkjgPuD/RH/EPAnWkov6xUvU0NMJbSz0Dsu+k/ZEUvkRY+LzaotVTAN4Zr+s/N5Wm210RsBRCWaur2m7iBHuq0t/1Se8O2RdCPNyB+1MF27eUevN0+VT5i0qxwt7QadpCwdoGAuTyIJAU7ud0+AY/uzv+/2DJ0BUqIYh10jwgqQXJv+/V2dBzCsuMP0G7HJ1lMVERRxsoONruzmdypQKS4W6vqW9Lwz8Ai5Zt9fvKNtFNIlwFxotcaM2OL20IeCyB0CMoRwXbUPnzrzEo3fxZfPGTDl4nOz8ViloqAquVcyHbzoZQwy3Qy4gz+Kz/+ckr+dy6kis6V5l1oQTM1R55rfrFodNdO4s+Y/0D7swMDr84SfuZLoy2pzIhCoqD/UhDwWHcsxACUgrYdX6y3M8ZaYNlOuGPUKTLxoQMzLrkdPQ8Y8kGWG5FsUkvBKJIFui36NDZcQkP/cMNotPNS+eR3vIXcAPr64HFQL9dPbG7fJCh5uNpRlInc4v9OK1iYxHlHteR3kop52wZhTtyJ7kNdVcRsErFKYLSn8JvFQDK2eqmQl9UbAx33oOh+sFkd1aDtUDhsLjaD3FlhkqV18a3moweReoYQVjUvT8QvtkAHebvZH6QQGbaJO841P+8obnTL+k7vQiyb96YUcpxV5sb1ehzJH8H/JISovy50yhsfQMP5ki5k1x4Qj1nAFNlbgQemUl8oJRKNLf9Dl4A7a4OYljV2khrRiEAZNWmCSwdVntCd4+eO9bVsnOw8qunXFQN5YKNmCghp5/92us/SUFQIXr1Gq7omKyOJQ6yEKboU6M4v7h7aU2ikFWclXT98xrZMWagDLoGhM8PZwzyPlMsqN4lWxpc2QpI/xqXuF+vmZYU3+h7NAAmUlxE2lpCpMKRqZSRpxjN0/M24EDtfcwD+DFtBbHS1c3SmKkNpj7MAsUue70hQl+JA/1sShyHW/ZcZAMTjimoPWhsAJGLJx/++Ax347Vnxm0U8MjyalhhkBicxb4C6fehD7QDHzkj8525vjh1DecqHmoipmosPyuV0oErUZH/Q4j4IoXiFf4s+NHelvE4qTgYouHh7IbLuzGtXybEr0FVDthnG2NuGJCV2qe6BOUfMHClKSRFp1D6d84ENVk415tjrlRiO/jtEadyePnsB0rzkqNEzGBwqciX+rdTQCMmqg+UOwYuGpM17mlEVZ/uPRcNtjcftKfd5AF2B0Vt2e0G38+RuHKojH99xgtGFPSORDO7dTtf1dzBfRapOzt3xkLBRFOLrd0Svp3Z7XC2x9AL0gRIqjQ8mBCV+A+4P/EPwR8YqphU8XlGbx1u0UVtaZX8NCRe1ZoWP//r/AxttO93nPbzU6ycnmLEigxXYQe7dKic1AoTdIKa7WEFISK/Y5qEC4njcz6ft4kKx7bHRC8Je+JoMUH8UZLzUhsmyuyHO4TBwkwWXL+RVMXtMBH1jjnKZ262IYtYOLbuctQu/2Ig7OQ2js4SrRcOlewDI8TDFoTY07GRvij6Vr3CySbEN+aEkyQRUe5XHGlIyTAJTQqNiQo24ewCm+hZi+c3HhRHkKO3TI15CH78kQQKJxx3urVB4i2b8OW7I5YBIY8FbBcoEJh5wbd107NhD63hzRJ1cKui6FMwYZQDz1eMEOkr7CTc0gjG7Vu2MigCuuKZxmTgQkzYyCdvUfnEETrIdsgBVo0w2xSXcBzsNzoIszwXDwY50MP35StzcqX/x3qR30j+yh0haUHR/8OIywh4GT/V2rNxIbQfzCtAjf5iSxKO8M9CSeftqt9spUZbGZg+EQbcUaK5GZBJfWV6VvJmrp/TJ6igcR0y3KjzWY9Kv3Il8wpFsF5Y1G+mLmfnItViu714jiqvVVONxg5Xf7wiOZWQiCj6C93O12XXA3fXGjS3xYhMqgx/nh/iOB1sEhYFJ6/ZDYfAmTEs9XrQN7g5O+BuwVLfBfxwGzvKuDgsJ5OESBd0anPYS5fHJ8HhMZGm/FihXcxa+4BWIK5reGxT6nxYZd3KVlT5LkA6UtL9TPC6EDbhzTEcq+rqtCrFjczj54YAZGJZjAQJf584mdAWhnCI2ru7fXtSfAhAURNiMwO1GGVjv7K9RNQHvCCRnkTEkxqCsFlkmz+VHMtfiQCyJFnyz47HeJRSuygYXxseIkdhSaQlshZEvJ1lxbhNrAh2KZkQDH/NNTeVz6GGMHvNg5ZtZCW1UXCIlGzgsbn5uWjD11WBBLfndv7FUH7BOXuPdZmuYFieMfL/b6BKQ3LGQAyIYA8A2XVJLGJf6leR9405RafH0D4F2qVFwELokgqkgRWP6VlZwelHzEoRbr0mkFZc4WPPe7FXQdGtnR+jUM73Br66ixY2aI+EuAOaTevONsn4+m0SALUlNY+USNM20bzq6nRaWfMAkVD+ZefRWMgQTaWrr2mSxlhbkrtMHizsADvbwhvLbW4kEBXK/VeV3nHoPozixs8qSutHGa6Rmc+pxNoVyupDiruLzw3Ba9Fqzht4eb2sRZ0CegmefFZO14Vs2p4m1biEaFJsZ2i8l6B7ItEt1WMmDwsksGSQzo1iyj0gYZPKr1U5e4P+AGKb3UPpejQ8aBCZuA+wPwSsBut0GlpyafJ34phiRANC5uRRYQyWIvu61S8xaYyzLn4WHOKx1yBAWdrvg0MytqHhueuha1kyJIUau+4TIHoDqujOXVOFpnCu4lUaiKHMXAFOXBs6PB/Re1QpJWxvULV+5GygGI1FhkrXjukn7aqXwbxD7Ow51a6IEEgyYZgrENJfNz2tcCdMmS7WJlhZ6d0a6nHGOJmGe0U4QbpMOf/z2ryz12KDfIOoSIPfsmqIkHWskHmteoQ8frQYXEaZcvk9HZY9Aj/6j8hGi7Cx64Wv0Zha3XpYE6m3xfwkW8Ry+2oQwlfk1BhCCR39nmIy4ic2HthSTCMm7Iy5SfYVTtFZgkLU7FxKec4wLNvMml0r/7d/5m5JFEzdyKNidYUCexdQ8AZheOrNcIaEZQ3P0TjvSav7fvix7vbFIZ8/EkivGLDith5x2dEVYp3IFGTPa33xkjXR6sSL05BWhVrGyz3NWqdmDlw3CFHqpo9inLYiWPb8jpy26ZwK6VYCyQD9sHeziGeLvGnllTKiPz9KqNWUPUozecUlSRDGMlJR76FAEYEtz5YsNiT6cV32z3HM4oDpzX4MUQeElhhIXTyylCCH1RMWvdTcLnvNIVEdNDsqENHEtI5YvjweE/mVA0wQTKTfsXqnxrO0Wov0DEGpP7hHQ7jmk/4vX7FlBftvE2mv/x4nhat29L4hPyIc93GLmsIyUSTpV3+Dul1p1vmKGT2B6llt03zwDxbCHhfI9LsUZ8D8qu3FeRLLHgxKyrKlN/m2WI/QWQ6WGmmigazi/LnqG9RVNli4Bf+veJQAqYN0eGmU9J6H473Nm5VsbcBKDVXcxRDG6Kdv8H5/NitXSN8DmDVFWxUUu5UwwyjDfyV8XygCZpczd0adB9DSRVGOH/Vzi2ctPefu6u8Y6XKSjppLtELQU/JUzA58LVO19UbBjelgiZgaGHYO23daRA+9FX1AiJFauVy6eRnKiVI5F422hunnsdbssUdMz3nTnydeHg3H7WnXVbk4uLTjilEgKzjEQPjUjZ+OVT1Ej0lOK6L8GdEmWVGpdecDbN9nz1uA53bQvRSJHB1MWvCnQ3Mnfdgkle7QHnC1PP/qtjhlKi47U6DbYQCoy/69NsuWmH6ehO6Ua4TNtlI6+O7z47DVeBVM2yAPmQIgYeo91tnb7jAOdWZRk4dSXlNw8zki/I3xhdekZxsRVmcUrnR/ti0/abC+Vgaxaswk8C0cD2eYCpupF0xA9uRQ82TtF24vNA/1hTRwXRJ8fzajgA6iBQdJKjQ8aBCdeA+wNCbyEB/Gjd527BKEA96HxAI2EFu7J7oZw8ojU0Tu/p3oPyFz6SK+7eJQ3eT1VxeQsjE8fkDxomWb+L/rqyavC0JZhvJe/c0peoyHlECWKOBUkzNdhHBIbrRQ3Ji/8IfaGWsrmI6WHmIjW0boYHo0T6UWTGb1N+2qwmx0oGbo48dK107CBmiFPpR5MKG3KonLAlyz2WfvXU8xrlDyife8rxT/k1BlknHLpKD0OHKdp7L5U27v5DyHoUncABTIQOEfsJUZpJYhiBAKPoE0u4qUg0ijOMPc7lvzU5nYrFjtSB/Sd9cyHI06+ZghSabl5KP7NHPzbmTGZGuuOj6yjjOKZkDmaYc9gCfBSwK5+hXYjGGfysBh7cEbyQZxgz17DRhpmu42Ak0DDreAm3uNZpapZNteTS9uX3lpZ/U+6JKMouVfGKJC9bRZz7B6ISRDyCIbmHyLX5JJnEtsoGm/DQqAa54sj0C1F9xyQrQoyvmAAy2Csp6nkps/P8CgVre8XjavhG8Isx7jexuIZymFsgbd4tuGAv6gzaAKbWupm8X4RykU5F50bCkg2JavnvYaIINARUbO6QIJIZMww+9i1EUspl1M6SimYYcZZxw/rvHN8rDCrtiXgKh6r/NVr4jfxyylCs6EKkyiG9srlJMeizgqcKQsbcU7yjHu/Y025yhBNY+g22D+bXVgRW0AZjnu1n5VwJN1StmRTUU8rDbv14dnM5xG6YO0fYV5rGRbJuYqwKNUigzD5ulw+YeIImqODVMz+BmM2dPwxFeIM5FULhDygX2KA0LLT/yStf+u+zjUFRbKsPX3MRYSCb9GjQIhUj/dS4bkvUBO8HMwZsARtgrdSP8DUexLzfATjjRgeENZ5uxF0RNpxMk6slxFYxmSzPpNVTxVRaHnyxyHCbuPJIT7d7vMomdqX+naFGAA3QyicsIq/BhBVhgLM8YLmivp/KGKqiTy2WusmwTvwQ0oyk5riGaxtTHsYkarAS0u63OElCotL05ga3GxpznY1xHLzpFKFnpzo2E1gLj6ssYLcJJj7YboSrceusWmENYApQwY5ha3ADHbFmS8aO9cLY5ACm9yB9n4RInMmm+lQxV+2Mjy2pOwoqYfnRRE2vPzfR0PspeNW1XUnsdvRW7OmFk0F9c73HwunN4WsBiVZGaOUjB8niaiw5e1HMiBFQOy723bdBHFdRia9fEeyw0VfPT7MdUanPuuIUXf8Gf6Sv6DAJMpXDlA9wMa93duLtd4v+lY7TWBh5/kQPN8OdX9TONAyM1JajQ8aBChOA+wPvu7g/TNBrkeO4w7EW55L15AJshs7GSj+ryfoj0d69MU/BXLyZNGqO6gkD4ShHZMkVInNiLVQo3cMTo5jxa60R8I+VT1GfpoYg7wE86OK17RpbxCe9L7HIoxKCPh1HMf5IL5wjuc8gysyooDBN+YS2C2dxafmin0roAOwxonO3cDqUm/8S+z1A/m3WV3PO+fsoC3VaUWlx/scdbHiVOjYPUGy03k/lBC5uVCMrVqjkj62auGHnr3am4kx44u9s0Ank/A8Z1ebOL+LSlOtqCON2IrLu0hPtj0Nk/va7w69tb4NEf7Vagty+dri9SbHQRqdqZAu1Nnm8yfsZnRBPSH9u5bqPRhRJP15vFiH3tFY8ChJOJxFJQP4Ngpa4Rz3Uvq0MnfZJLKvf7aHwNz6GoAan1+tPIbinhVFt43zdV6v0k/AmSyYTg59phqNE5s8nRIQMzhzCsAJO9SazAfHlp3mRUMRszEpUhdhZiT9mA+ZP1e+16hj+GaSNSB5CqQJ4kMygaK5wYhnKvZvzlWvKibuHkESVWOo1qYSzm4fjNjZdRJVslsws+C8sHsxaUKQxwpm12lDyS/DW1c0FxwceWJpy64NNAavnD+M8rQOEWRIO+I3zfI1lRspR1S9H46ARMpWlkCM663wi4P2kcRi7gSnHw96pWaVnHGWzNr3AOAtURaf0FjzJ71p1IsyZQ2DPt1dZRFnjwJZAhhWTZu/Z8mA8MVlsO42kEfeDg/CKVbfkTncOhs0cGROVBiEo8YR9O5kmnAuMwXu6xju+bnTlnUMPSZej7CaFKyEWPR3Tf+cNB8iXDvwcdRt6GBPwtcUH6MW3g+SXQ9mjk4L2dsFyydSP8Yss29twa0g30eHmoUAqzrSc/Up+7BNix1oN5N/jKINq/rrA1Yb6pRcT4JsInK/MaP3frvCFSFh6tBwIke/0a4IbSfF3uqjNp2HxOKO6r78A10K+4rIfotiC5LzAgqyFa99AVu/DvyuzoAXE8f0Sj0IJTegDDxAA97SWIf7I3wQkbxzN9kGdlxzc9cTAJtJ+nBBehYcZSY+gkhMjyayJxZW5z2h3NOHFX9LwTqogpMGvVvJpo4DB0wPd27pfAUAHXBl53t3Mx3SiS5ySeLnOODYIQAAJoMtSZAcejgalqZPwvbfUXOp3INKmEGOPZqzY4325DB6UHWeTHJE5/uYNZrh94lR0KZBrhsWALflgGhK0qHANXXHhUa7veREChxy/kBCjBUUlZULKJaksR52nP5iNFpFBLspl9MzWh3MV9JKjQ82BCk+A+4P8EfwR7HAjbqtXc4ooALlU2JLvVe8Vq8NB/TLb76Aq1yb4Al9Hq9A6v1CpyoRySVrLRGPFYCAUcMchw5705vRIp0RrYE/q78b3PW+1cKFysjjO+vrWjKlK4S+0n8RmNgF+EcZLliwdoM7AhDkdl57EFDOI8EXhTSl5AR5FaneouKRcxO1eJRUE8tmulAgThw8X5h8bPMOw21mXjI/uc1H1pWcIZJlKB0BmgLlIFiAMmG1fkFW3iS9WmyBfR0njP8LUvemZZ9I1QGc7ckr7TveYc13id8umTQfbd+dlIi2gLEkHts+IsHwKgHnFn5Fom35eZ6nEkf7ekYDsiReeuZ4kz17LCi7vD0LeOlm45p5GvV2mEVz7rkgalM0+ubVBY3J4tJqX6B/t48hyyE2scusSqGBeHsG/nIqc6eW39p4yQKz5tIlUFDfJWTj2CpfiFkGx2CaoVVF0Dov3JjycGFFY6xoS8r315E+Oir21Jds76O1np4uhBYukBQFyIJWdp91Q73lZ5P8YkdRhZxWdremf2TDyMHHzNG8LhEJp99C7g8ir7ETJYq7mStI5yAUArar0GGFFc0e46xzimxjb7HuDEengu+2x7e41YIKaGQnr2WMGY3SkWIHrLCy913/Kf9GsmzcnWh1kwfKeCdlpo3v8AE9DjTq2ed5HHTaUkgJj70bW272CpqbOONf3cdWxiodbW6qmSYSMAUgPOaboQieTeV+bt/qn9dfqAPj98dc+R0I4Kch6Ss0WKDxsXh5i13WFQH2HdVH/57ZrLB6ypkm5HwH/I9dxGNGj4VevjzB+4SbONWUMZJjvhdZRFAVOjD7vwuIj59z5iOLtZuzzr0Nmbt4LF/A1Irh/wMFhUeLNdehXGwny2EfhTIS6KjCUPvYLEcfLGa6m0g35s0hsNpGPGpTNNCEBvaKYW+VxS0CqE4b6Bs1QhKqiNqu1xzISqsIU49F00EGFtoXFjJwG6S6CbqL7acXGqmjc8CoyrsQePv2fGHU473JRHS+fcLcs8FLNNWG+QJAHDOtG8pbedWWeQL0retEFaI1N2j7MxEGiovS5ugC+P10ovUY4p3EinXm27J3YgKXEiph6gKuSj6UzRQXzkoOVEJAx2Y/n42N7+UQeW8O41UrmKP89t5gvZNQQ4kWZopQRutfL0DdsQ5+68lDaO8UMD6JH17bSsFsBsdo+3mpEAGDqlGZS7frF0RkfEv+BW0z6upjU0zjl45LoZ5MlHsO1LMPDGYh1jivd2H0Soo5Cp9vdWeBK4U9Ts1vpRnktGaSTo0PHgQqLgPuD/hD/EO+ZupDTZzN0ziEq2+jvu0Qzg5tpBxoh5nf6PzeOBe1lw+EyA2tp0qQaMDA3oFSERAwBvY+qfdaC419XVNStMjYZ8deVIfztLQiMNyj84YW0ilevMGyCKuJ9Dv+AXkAYibYXSb47qR71//ySwYmMGV48j9jU13/fqc+2EmEMw/yUT0nI3jSNQ/sOff4NpUj8b1Jfb0d6bucVk3QTEPKGUomLnRGhCxxzUiSD04sM/PtGt+Q5tNuJUftaRt87aafhtYBysLztcNa+QLs7TWS6YukEn4RnF5qnutfx456LF90b97JYshr6KLiwFdOttWb93AwvaXmVKjHLibJLJY9OfWrYCv2PNBiuE14ShzIu5kAr9Pioe7RdMYelzk+T0kVz71im1pputj8cxjwDJ0Rfz5AGHNo3RTDnoLQsAw9EjfAzcC7SMydFh0pGLfGjBZPcEeNfo+VAxmXh34WTFJQX8ooPrC95zdOGE0OWx2p87588WQGnD4IGCo2y/dsSCCNpkA+A43qys/jje4gMQ3iKs8TmT7z0LX7FI0/N54vWYq6CzeXaPN8BhtsHMEvapSzoWb/su2usOSYFCNQmAKdlkNgr+WGUcCpYhitbHP4+Gb+g8UVdkeawBuHu56sNdeAQVrAYrtmBdIjYsZxtHL1a5hQMO2fn/b5nsEMI1O7qIRvOFhH43A3mHgRaWK7BLEhjt/SUvoLqFr//DAc0Ox6MAJqcWaI0rZTlBcAqKhHlKG5KMX3apgyR0D2S6IObwhZokMEnkEzXtLxxBF2h95S0K+HnbAhoFvXUbwi0YuFpic+th8J3xRMpZtCb+I+DnZI0dzhr96pFJla1aPIxVJ/wOlwtLopTAjYmOLaoayIIVBgxqe52OeT0LLiPjE/2JqYPzkSoLlF7P3tv8CeqU8evmYL4gupc21PRm+8APYstpoZyUieVuGBXnECmEsQhyxEC29K2dIJBpbM5fJLbp8MBM7uRxFNx6Cg0WMCU12xQGywd3hKxHNjGsh1Qv77ZE3csBm2K/MEA5eGBBOlDtn/8qyWetZHAnhX/OVmIoiB4TSPTe6gx928FYM16GD3LoLw34HEWfGEGXpa+956bFLiFL4kwgwlMAp7sgYep7BpvzZc5dy4/TvoxCSuBmYAvkPw/WTKma8w5T13kn36CPpMaDzwGWewoAnntqXJuOkB1m5oDACl7D/xh9ESGK+bLODRREjeP1Q0EuFFHU2udj7QYj3Z3srRCEPVCuh4z7cz/yH/9cbE5g5Az/KF7wSxEnaNDxoEKx4D7A/A4J/yt/UP985I2G99iwPUoH55194NYuOSp3lr3UZpMbR2UiOYP82wXL7hnBTpStRGIzFn414BHLAzpcZaffJIFTvBnHbo24gnYKQcY6pDh7H+akBzGM8LMlNjd+ChZOdGNULqJinW7SVo5US+RGL4M1YQcjnNBXgMmG4F4xotyZ3eLrjPD3g63OhkoCLDRNh48NG4ynvbUmIt0gxRJtOLs8n23iwtMJrYZDbdbAym0Z4pxgeJgANArpgRNjlzmM90ZVl6K44Tcke2KhnPjKrF2/mg5qLW1rkhLmxOhm1RkEvUSm0aoy0e9VYTdE708DzFSvHnnxpuYaLw5g535iiVD3ok1KT7pGoaKsf4nmB7nhE3RV+H4SdrLgzKB2p5fYe9c7y53CnWd9BrmQ+rYABSEhr45cEepn47t020O+CSS8Eo8QyKFkfvbXfAH7dkj1qYaDOgp+seKxI6aXvHKsGOUNCEJSmo21Np7WV7+FIzhXlzQD3NunolhDyPu2JXan4aiMhZer64pYLykIMtwZY3NI8eL0/cDecMVeoGbnop7yLMoErVcWgjQKixStD7/Vwoe214zeckMYCgIrf+Z+BNQGekMI09RGlKfaL81tdHEZgJJxqZ4i2ucQp+Ws80dx7ZII4j+oz1YSru3hF9P4nsrU0ClBh/OvIQDEoDzK6aQ3NaqEPoOQ8NotrRHwAYTu9sgLGDXjeGv0EvQ7O8rDRFd+NIAZXKxADUSVcY/6tOLGB9q190JEIHZucowOzldq8N1zXY6Jp31y2PQjgs+J7KiRhkZkH6J993MXxxYEfugegDX4MD1dnFfOBFCwB6IVmW++V9iBYWPezU4jCy4xJXwMlYRHa0ymL06iUBqH9eTC+tPzfBSzMEYPs1sEbhO/kT+YHAhGUYfwfmcvzzhVdTnV2NvtdMkr6KxtglD6pTB1n9qk3WjHBWLCjfAwNLRRPlxi349rkfh+FgVrQ/D2GMNNynQr+AryWbYXfuOS1x9yzv0/y9PzHd9ALucvmrsMhgezK0AKLRqC2q8CRJMoqEavhaiHoVavyG4kX74EHIfUZNeylDPO0k3lu/PCadbvmL5/79NEjC3fsXe+gDvq6aaWlEN++Gnfn4BaXYlLq4j8lW5zK9mQpBjIna2W154q1mLIimnV2pq7bligUuidIA6OvNSHEJcTl0gsKrB9IvqwC1AGqqrg6v/ZrE40Yln/NWABKz/EqazdSsymGCcQPkyOzSKdRuffgB5AIG0z5/HPtpPaGBJihwD075VprDUhKNDxoELA4D7A/A1HtySLVCEGr5NnRlgX3urBiTb7B5xNX2FWw3CXjDReG24q1fX+vNdsYSZILVGC6s+icx4NKS9CGAKK2QtZU/lW7VRCJvJAy0PlGEWiApMZnf/8Kh3JaYrXUiyFEpktZCyyovSXC8GDVG2fniInunZJI0AH3N295Y4UurwSqpZHd0S4p4tp9GjufLmaBwnPhCthzQ9DMLAx0G71kVL3UkO9IwLmpqTH2MWjh3sL4sLRsvTlH13EWdPqGUhdmvYnPaOWTyQgdUAZjgJCTVSaI2QiAzUqt6RjV7gW3afWNR+E8GHK2rYkq/7nLfjSt1Y/faAi8ZWAnSbBe4JVnoEVfI0Xs3w1Blt4rq8MykBqO2Ym122DeR6xhYrjyCYn/5ZzgaW/o6SEOwFVxRq+gN5Xpkc6NMBkCdlWyn9blpM1DSF77xzZ2vd99w9wrZ+xKXnFZLOMvyiTMaBBIA4wKpIP/lpP26o17K1+vF7/zDkGxS0g/R3EXmTf7QKud+JMppP9wFLeec4rlO1/tYev89SDZCUOCqIdd1cJ+EYFn4RKPVVn/CIyfbDdY9Yq8vkN7vTaa3skxOuKbItBBJHVJUgqimVJ7DB2edadx36ERw7VXJIQS57sV0/SanZwMnRaHyxI0Zgw7bFWZ5V7vFcrJKa5tI6mUJLd9t3qvdqRbYi7lMRDA5wH/C8FtdB+ygrslKs0Re5QN5H7YXWpLYm1nnRMAOKpKfd75IFP/ib7wVsTKVX/7wSH1qtBy1yeXQIESWIB7omuV8ODZu3FvKJ5GxL61BBux6n7bUdJg968N5K1c1HJ0CKYZETRZrG1aESlQ29PDALuos3KYHRjPQJzWorhJTwJeaLqNrn2H0epprvi1ooojMVTtvf+SIrxqpAVXvdtM5o7C/mQWCxumNF6Suc6+EpE54Hrr0KPdnfmd0/8s2MuI5/isF0nlPhfnY8aqxOYJhYTKnQ2qLAdL0gxIAGB43AcAcc73liObBn7wnVqN4UeiJgjOnBRRKQsXys+Qym2Pzear/r7tBAB81YPj/AEvFKiGgFJLIuENFObMuKpvy6LD6tiamyRIK+ya67O6f/2oqf3iWtMICEyGtZGHK1iLgwTz9pV6T4dLZ3tyZDCIozlJKn2NRmCP94+5BhW8xpr4ChLvrPoHST7xLQ0ODVeiL+VXsrhnZOUxkj1917y1Tted86Et89xAQXEeFHDzos11e8M4OYAFnhLtzEKWXBGN2WLTy+vBisHxnGxxHERMx2SMTiLDOvVD+QwAvBdlREkaNDxoELP4D7A++cjbWXuZXVfIDk/VHAbP/W6n5y9xY5RzXyivnAHjtLg92/X7tCCnlgYH48snZfTQPL+7/VsFlq+ym/ogHvFAogvyymQeDhGIMbVfrAVo8GOFE/0Yl5qUT1UAXuBDi9dG3UpdC0GFbE+J8JTY13r35Q0195uI7CKdXHHLLkZFpQq2GwQdAmxsniYgoqtXC6XcM+g2/XaKpgHaXv5YzBawAS28khc43FeikIfohPYVST3PD4jA898ZY1iKL8OMo7BvoMl8/zHXKvT8lIuWiYPtbB7JUJDVSw4+YnM8dlbL2t1XEZ9TNGGWhXi9h4HU8IO4aGb/HrdJtjCnDLwHi7Njj5vUszZX1rAA0nhBvZJ6MrrOhevBW53oQgtAZ9mGNO8NQPb9aexRS3b/6CmmJze2oi/wGDQLcfD58iVI+JjzSP8DHxX1t5GiT/wU4bq3Extk6yLUoMLZ/WK9jbQ/4P0btAOzETEJVXzuF6guBgNWY+VcPVhWUkBfkUsjZMN+nnDm0RtL7wN+7IRprxerlbWZPdyzDMi1apM1/+6lRhqw2DpjPTnQCUDDzJPAV3r7H4VzJHVS+Nf+gt+gNr8SuYk+CSUewrohsv9tS9GmoDgWsk6zay1Ijr8D5ipYMXqRU4nA3lyNk897eusCH7frMmm7cf9aUMXPkhHRDuBb5ZgDaKvhg/labC7+XhVfnzl7n67mEN408bVta36D0qciD2bigw64OHj4RN/5swvnXqzTf/3xijXtfliQozkzmFgqaTUrWkntQKcnPY6XxKPJD4f2MBYP0rV29DLB907J2hQAoKtywiMdWz4g7+DLOEHtbwGrJvwy+XR6XVJkMIZ3wBRI/xkYFxsQp/ZFg7d/3R09AWbdd9b4LEJUUZzeateh9VSf/1RQFD0XvtWzJ/pZHvwYfdOkSmRol/AhwJQqu6+5V+VjbJLZ/J1Qsd/G6irq73wa5t+VhrZW0OXr9L2XtcIL3KZ7ob94ZPpXo1xgA+PSwe0bB4gQa8f962HGCpCrGcoa7anKI39vs4DL5lThLeaL9J+0sOehS9E+tcUdSSjBW4koeTSG1TretMkjps1QqTBkJUrS+lVhYXHQdWTu/WzfCNaMtqoL+2LOOT5boAKDo8iHk9tsgwAtuOg8MNvOeb0ACM28IwSfJrR+W7hcXuWDaokwKZQavvKPS+1AyXOkzKYdqxrBEH1GIqnDIKy9DIH1QQ/Ll0mvWUoUK7zvVaDzE37KiNRwaXB4JKDGcGmH/XAx3hQ7eySwM+rlJPUg5kk6NDxoELe4D7A/A0fY89teqmyfMoUaY7FRguWeyDcef5/7iJuemouoMyguE7xY+z5y7h5FXzAH8QNsJ/imMxdz6rDTSbcvCO8xFQk/w0pH6xiGv7fNJZotfRSsAGR8BPNi+ISckBBdW/EiNudIiZ+Cb7a2BqpotMuzeNZKq84L9JfmQ72ydsJPKjG+ODOcHBofFBT0ozQYYxttcc29HIlHcwDVhDSUiqg5VED2wlEsu8fBdjZ5ppbXYmk7vuHeSygK/MZXhPL42UiMGM+NYquosEZlJmXLkPOWAkAMiOChu06RzudUk5HFNcd3GIIOiQoTFWL3w1Jt90cpwuXdAcJmuWAfgRLT/rTRz9yo8K3LxR2xDKu/0/xxvWmZnYXjkgkOTyMykYi/+65DebrCgbWeGYESe9fGnXjU+vP4htUjOPavFvi+recxSX7ElJfIgudlXKhW8xkyQZcPSDXxo+Eldn4G3w28JNIixlWC442CMUq5TjEl8exZ2v70+0/LIZ/D7aJNvmpYlVpjMmF65sVIyhVzfTvbM2uU2njBksWGyHr30LgdSKG5Pa0fu4dFIKUUZ3xrSd4mxalNfDGOKvsH6/V34J5jDxjJcLgogGKGEdQyPXapK7m1kohiXWGfRr1XbPAvnRQ/P3q6mIXcmfNQYikIbaoHxpbm6ei17M1On2Z+dynTovtgMJdkjO2sdpvU62BZnQnTISUql6oK5xn2eKW6bkeHfJCJiGPyFcWZ+JafQ+S+B6xVhS3qF9wns8Syex1UMsDrFu2hHCzDKMRTMYmLKBwXK7fb0ouzILKf4GcHRpjcbFPlun3i3qkTaiX0lt6gHTOSsGzIZ05GttUv8xGqBMleAsBI/sXoNFlQDP0IMo/VSFSe0rSHRoo6uluzklAQla59mA+5r2riuhNSodjb7/446/Gldk0wHs1xFR1EQVGs7dXVjKXC6kGSmwe/K9eknJOjjdDQ0IY4+xGFI+NzXvdPsjHiJj0GIp11w52hED1On0myFRmE7KSyvr798wRjSTAKDlGcyevDBGYWChHr1b2v5brsZiTaOIApYBWqOa2cM6mR+GYgiydH2Z/9sTBh+RCmfROyssGnUY2yROkcCskPEiraSyvUbdri9tqKS3Pm+QlN1h0pDgMRu7hZ5ePqlrLbywLnxe09iPOsB8aIepxTKuQswbaAY0nid0ZqtdRRdQylggX4uSNdPwyM4shT/9qKH6u9ntgfvQPqGlUOZEfBd7Np6OLh1Uh9zjdOX2UCwtizVFRBZEJne3qZO6a6W6o4SUlqNDxoELuID7A++Y9xOheF897u+46Z8qtfLwosRU08wWrjUe5lrBZJO0oZsEYRWEwQjxnui88J7/L8jeSYWkPzuM8xGgdxI5QnNVQIUNAs+BEmGypztaJYHM6wapRo/X/i/V8Zf+F7LzxV/tsQN29zltAgyTqjDiyNFQePmGmly6SgYHcep4hMSCK5BIp7FAf9gUD+BVgxaoVyLRSnhFpHNg8wh9SxQitO62Pv3JdWcGXCZhIui2AX9qFvB6zJVtz7gdSGSJ9Hyf/lyj7Mvamjf0paT6FgGa3Sihv6V4Gmo7VKua4os/YGcm1pyxj1e2qvDoSadqfEULrRtKN6gfxamI5R2KKI96wRGrH+QDgmXCCzB2uuDlq7JDuDLrMgzmCO/S5u64YIp/tNO9ApSonLNcH2gcXOplwVv6Tz4eKhc/mXOBRG8UV6SP8YpoX5o0ZNiuRXLqlKQMcXb1+XqtGmPTnCkYmWDCYA8QgU1BFFVk46/dTmtbJUPof5QLPEP1/Gx7EiHpwiGYPpv4Ix/Gli8lQtt0LxP63IRg6leWEE0DWKadb0u3twytdISYbkarYVGZZunp4TVnvzVv8HwfKK3jldoPf0/+ZrKB9HXzY19kakUVmJNVKWpEVNLKTWeJXcz3+5/DNooHYuqbR335VCQ6o5GzxzDguJD4Oq1R7JJgQKp+mixpMgYVx1fS9ZlS3QduIum3OgrwYoMJkzYVdGcpdDYIEDExXP2iAahzlvncEcf+zrCFl8ah8ANb+6DhHXslrHmOmKN7Xl0P8+xt4vjNfPfpXs0m8DfxIStYz12/adZtYFfNnPKr3oBf82PPxcnV1eOtFewrw1Dm5MNlktN26ukS4QEnZJfxq0ueDUlRNDRtbA1PC9AIWV8sMQOy9Wq1YmSjTEpz+S91HVO5FPGvniUiNW7cyyMMvhkuLqCsmmNZZhRFsFBuhyCQxMQRMWnAn1kNVbccOUekUWg397VhH7oHeSTMhoOelLMo/tJVnqzYi8pYRZAdRLWhmPJ2Gh2NQSGvPx9MglQ2MAWIAGnuv1dMFoEqB0tav34XDtnoyRGANR28jEqjOaFOZEyl/Xf3g438GVk6VE/4a+iC/RG0uvrzwCR0M0re/8eLkCc5qKzFuNtgmm9DNyPbu/U74P+1MJegYcBxBJYninIY+xQoGvV9QgRN5Q2Le4ScfWO/Qwn+Yi8R5ProvgHsp+cA+uhvIjUqYeJfX49sESrT4hgz9VeGTPtzIc5kzbFUyFMvQVFkFbr5qnVwD3pGGIfert3Zl/8Sk5IUkaNDxoEL84D7A+yhlNVAfp8AtKmvsDiCwhlOe7rqJ/wiAkHNHjYSym751e5n6qYwNlHEby+146ZTNHM4PxSAPF85LNhuQ75/LcOLYKjMyJbncJNFBUoCNfAAcWjkrHRemWXhrJFYQledRliYFmLTabJWjAiZSbj006ZgnlK360xhKYyn88+BjQ8qOhQrdo967LT0x5hhyn5AKm5yy4OztrBoJz2a9jVyowG3+WvFkJevnHD2wzywe17ZLjFWX4R8PpCHCXeDnP7Lyzpb1U2AnQ3VyaMx2BXufLIGw7Y+BBuSJ56C/UOorq16XYSo+EXjMOCHMGM7jaiAJ5tqmJ+dG++ZLNyf8tnwSFrGOBUG7Zclxk/72A7hdA6b8P38c+nwWcvLLJp8knQW99D0G1HPzzLkN+mmUU0NnKJi7BlgPCdf0XrknnemXRSd8DCPG8Vt57OBmbmd5KZMSEeBDer/OaCNQYma3hEXK465qiRWatnzkGwuvl3G7jj8PwdKcRffs6KxA57jQ9/NJH2NCcBQNwx0CGy5TmtuApYvOkhNG4sUZQTNyvVf4J6ejn8oC6HSFg2q2EAUbFb2iaNIswiCalv52fdy355Q+9h0LvNK1fFKU3jdMBOBmw+t3BCXZIvu9B6XQ5fUZ8q2EbO3Krnx853u+vHaIfmfejoYUnZEwbkpFP/Oqhl7kHWu+VwYl8BxK0oRypcBHgAwEluO4KLxmAnkQc5BENHfqF4Mbek3JvooXKQqhPEas6HWGMDo3aaQsgSTQQMXPs5gHgRir9XG6T4Ipfq0WPLKT/ft53Yj4Z9trBDCfMh9gD742zp7DBtpgKHvdJunw6iUlfd/LANi80sWG1nZhslBhJ9Cte8wxj8w1Q1OERbGUlk912UzEVN7zeujS3VAWw6g29MY0FqnYAUHxP+ag57NKsW4yMekDruYD5ngl93tbstN7ZOdv3smo54dtHB4McVSFEzfAoVioFz5UngvqBh+1kuE1mPYM9sbCOMZTiuRpe5oTF183ZCV3MYVHYZplOd7XILEx0IYD+XeNJDht13cAEi17nEBhja7r+jYS/+HxTgiVx0QQRKYhoieMfDoETIDepIQR81q1Azr/P8z/CIP6IIxz0SFA+Kh3pwKF2WiR9C9l6rzssK/bV7Ulbz2QPNQM2GJeS/Hr4BatOWY1UffkL3zUiZFLTMKfjaxm+k9iCJQ7pnSjNGYxEcwG3AnxY0rJ/Py4jk6nOO2smrU7GKX53+QBDawof/IQOb63/5c7WaZ4e95HbyDdk/vbct+2hXxeKNDxoEMMID7A1QUTY1bLCEM/HzlmmmYbtlxEoS3Pu4WWjEzMPS4jW/YS+hANPBRdFjJ+BbxRqPh+LY/jdgMiaqLfZOF2NpAGXJZa3QXeH5BE1LbMFP90z1UE0CvkIKDwMhEASNl/aLjLA5+StqOjJa2claaOaWD69epxj5onW5/WTPRZPIn305L7b5xrEwMf9GnEBGYWos7SUHpzcF29ky/L+wWPO/cDm8oJlK2ij5nOHhzcrGXXXPkmiSPk/AQan8G0EbdstRR87BhuLX/43IwYW2atqonedICc94x7fwR2UOlHB1W99cvhWYxClWE0jnJqMatJyMDxfySpLzpgHMgd0xXxTdSUosec4jySfVs5PUvvKfLGsyBvJt4r6VJEtU2JFx8rxe0TH6MjBH3PZdJwb3pLMgu59Qxl0WwLfL5ceNdwUpfi2817OKA9FaNA2fP6n2KuMzKCt+IC4tlNXx6nFphCpO8qccCkF9ohTrYeRD3K+5axjPZKlvqaFGFgS13qRPrsIrOLyLQ5asqBym0DoxUI4/fYxz/dUFLYDECgvWekFyu3IpNqZN9D5YE0S7E1zNvKp1jI0isrFKS2RdEaCjcHUP8D/APFUWJnmB9hG5ateTgPh62fOf2F3HfRRmLDcwuIH+gmiLUFruNpH6L9MhHFRT+Wv6NNfeFPDhCL89UjJDX/A2vs6Vs4bFQdiEGM/Imkn92SY5aUHeZDE6KI4LFSwv+Ro3ncAOWrwgohp5h3WKdtx8rhmY9X09cN6G+GdJM5OX1c39w15utOqKAWnOGpXT0OfWRQAXrFmN/sffUkz88rRWVBsLZcjXCb91b7g0XIAlLGaHbmWWa6aQHU8ewsBObop3wN1l5xgAmY07Py1czDhmFdi8Kuh9KtyNLRh4lhpdPjutlAtAFaGZEjZ3r9S2WDVeY2rbhiIl2Qll7biBkpMxh+jkP3SfeJRM0EtanPQLv30yPTbgDGA+mCjk/rGbWoFiNtbeat5LLZkaawoQ97u7kLQI2hiUM2tyw6AoUQyORyEIVsn6iZcDovZ4ZV4ZwzfloYMl5IVcHMd1javnCWG/Vn58uLbWKq9YSkMOxMhgN7Wv2Ecmr1DCVbPbtvqwXDM5r/RugeChCNfo6xCwaG9eG+vToqupVoG+QJuKzSygSVL8RW2iIKnEtvUCnz0qgq1DEWTo+IKaYDXKnFhkNIy6rCv/D8lJHQnqNAwxplsqNiBlevV4BsotveO33OJ5Peha5RgEy7B8cMFA9K1MNQhEa/mHO0SW3oDd+gDea8YQijqNDxoEMa4D7A++ugE6dJM3Zp2E2a+EPI3ee2+wPRogE104bAMG3O2xDsSg/xxjjfUS84gsoZjOv8D2PiN5Cjpf+8go+RTZVE3EZDkwqeWz8RhKusa9WPHWQQwi7z0rdviOmKLyOseQgm4QyefnOl3982zCcyG3+qsp6Tq4V17Hgk8y0BmeGq2Y8ZvOSi4sxj737A2NlQi7X8GKG5fnIrYTLy9gwJhZE3TiZWsdUuP9KFUsFoqBDVTH8omwGvRNhEr7tbRbQraO3Gxh+Lty536pqDcAO7Z7g66HDyzSWQEaE0HTPchYqa7ah8bigxqwS4cM7k5vnkWwhttq9FYHXE3zSBHvMCpWCQceGDVHF1NO83+KAJB0dei+qV0QPKAEXvZtLn9OY1yfitZg/FpYETT8A5rXSFmg+2GGSTcQVAerB23yG/AV15wKR8DVCRtbiS9zEMBXxyl2c51GTHrATy6K9DbMbICTauU5yNbk0k3qfUDPOzYqVTSIe33WYTa3qPEruTbNo43PEXrDwPjxz9kS6FKJzCcJl1zZE+UqfGI2G84ij4Q2uufbBLYbwwaGDWxBUB+cusWr/05K50zP/LSpJdrr7zMLwou/DbWZaCe5Fe+O23LK9wiNyC83Qj9P3oHs7csFmfzBTroES/PDislhSk3BEo4VUsYrPRSkb4thBRoCEg4WC2e1FrGAhQ4IrT16ogIrY1IXF1Gx0so0YnvQlv6IMMJkoi/MZz5RnIuS1pgWcAQbyLoCkUu8Oz3hMmh/ru2dYLMh2mDU8VC0bSLECT3b/kwadesgrQ8tjk4A2nV5bGkj5MzgJ5EYdwW+xoJYmLWyfo1JKcYT7azIp80/zjda7n5oihJXvwS8JWhAXHlnJuRb109ROiqobxu6s0zAZ6ob7sLeFhUiafAIObt7tjVZshNjAq1hRVax0wSwMwibQzm80VJmgB/pKsQmHxQWh7poGv5mf8twhR198rBtpeL41KWWn3n8VNpcZ7atvi3lfR+Jka2kLDIeai1JckLAxT7ZcQcY0gYCWwLMDevd7bLhqUWDG+8alD4ZLLoBA/zwO3W9xL/DvBq9gFfDL0ubc38JfoAPD5IisD9cFw+30f9MxS1fhPelh+epdi8Q4Numo+Lj/So0DSVFFZBNbygkOVMgNKo6xYEJR2kvwqK9jyexqZogtM3Li2HNvTB98FM2vk0CUArC9uhNtMUVZ4ToqSKiLc85vIC/Dv7bXeT9Q84FlXCmH8s7+qmTodOXISqBkB2sQ9m8374TfWdHJgxOR37he+KvkkaNDxoEMqID7A/A2uiPZgkuMbKz0vA9KHxyRX57dufLD+1Ik8fXnqCCSMEHx94ggRkwkujprNEgeI7PFd2av3lTfhRtxPVqTNz3C1iniD/D5fRLwv/gyXAyDOdLq/gSo6awNXXGFKY4fSuqR+Zi4AdaR2clYu/mHSg1Je61Nt7KUl+ukUTQtija9VE/tLUmjekmAjqkqS3HyqMrM5U3wRHq6wG53KowcqHZ4ZtdrwI7Mr8N/UUPUR6jvIK8QlD8HfBa5cRIlG5eFRJM9SoUXN78HafWXrsI7YXWlggsp5gbNHwlqcHUvHSrm3OuZmGdd9Y4oqpNAmD6xqrVW1INj++PJTlvI6AiVKAtQ6RkyjKuCfurIFKZgD2ivPetWry1zRm8FtInJtpiaBEN+M78ZZsjcqe5QPv76J4/GcSt2fcepspgvLVhdHNST8CnZnEJomXjbGyknGjSoKlREaoSjDckmDKNpWr+aSVjnJZ5L9YctZJV+jsVr8L+/bwvqZ5FCbsHVTMlqZA7K3FgEEFELZ3mt4ZaP27wrPqQ4nlaWcvu04QJwt8U79l4oUh0CCzH+y/S/HI8+5XDBc7MtiKpgzY7QHkzzYBGD4zqqE5exfIcUmySkVyMdR5gned5gxX5ev1/A2SFATDskJLCfeYis2MISGnsH0KJJKI1O66JsF33079LgLGbpbKuZ19gQcmrfy5D9kU6llaGHswDe3pa6ziN/ySCgaOMmFZR0z5WquI/hdc1/AuCrm4tFAY6IOy1ic+aFUfhJ7ZsVHaFXdqDNUB2n2PKoGRNvi1dvbZMzauVmH9vKAAQW+znusyZOw7/0XvBow6Fpc0cUxP2oBwKCJ4hEVN2vWKFExI3wOYS+fVK0904ah+b9FSrDoUEvibF1Kp/mFNFV26KoDcFqNbg9WDTnrPoAtZFbfuyaDuVzhaOPoaV7aZl3l9tesuyyXvD86ZeVzeo/rSfJKD91BiQ80jVvUHU3pztRfWEmuIwbuR5aYnaWPsNO65+jy35NsA5Jm4LpfwDhZxFhHCKVsWyUVS4ftTMWzsO3ZxikC3ML3XVc791BnRnWwihDHdJrGCw8bWT1r15k4kQkde1Pge0DW6x+won/AQc8J8/VvT/WEyNZCmpjNBRcYOMyFRDGR26i7f/nP+aCJ2Uizcck2X/lNsaVuWtfLf4kkMZtkW+VRdvcv+tCZHDfTDPBGfTCkegHNEaBoW5wSiJUgNs+Aly3TM++e89tH7m3yyAYRJwdIkOHDhhIzD1HhMUYQ8nAfn7ZqfS2aEIS/yTkjqNDxoEM44D7A/AzbXuyk0Geh6XfZ7YPA2fOpog/w+Tvcm44YBXNGFd5TL7/WGn8PByIkX1UAauOwHTAneu1ddBN9fWiTmlDfYor63zVQTXG1MsFZfJ27pRNd1ScsayXpA830x0SChUI3yHxcET8ZYycgAG7zNIO680nDyffC2EQjoLF/FKJJKKUB3UVA+cETDNHs2kdgZaUZvFJRSFJGFjCalv97FvWdSTnrQDvqDto1PaAtt1xPL4Hvq78gL5JtbP8zIKKh5BMxC6CKVTdA8qZBjWLsPhpq/zz7LF5FqTWi/FLmFKsuDHJOXjF32Bw4aRRuxwOzHRvvP+5CBmFWMLpSHI70tgasakhG38PO8H8098bTKjeMQXwiDt9tzu4KHu+LIVyuIAagqgvT1NbEO7h3ZwPjroU3Rq2405rguc/FZ2Qq5aMvFSP8EpkMES3/V/nvhYYULq6aP6DQkSUKQ1L5pKxY72375g3qe2Rp479FuG96QN79th2UEIOUn80Sb5Qh26u2M+uYg7gDpZpBdsC1UYLHRuQsD3Y+NjNtL/BCP9a7W4M99oiZlM5GyRI/4uOP37r6yHlxV/FhBNk+AOjOScxmLAL5UuR1li6aABcI41iSiTt2V3xdtJ3Wh9GqAvd8dBPpg/+KWRI80cS3VA+c3DvWaLLQOwfMej06YGxTYgIwdzaRJkk5uy/SMvjmZWXiZz1G5UqLHkL7XgpweVzGoOy38SyEszXCw0OEeoE2M+Z+tc+JmrP59fGJgzM/4CbuuoSQt2wr1Gji+pQxxPZOQtTjwXEgUNTQ5vJ2mguRRnyG7DWrPI9aa1+dm9cej/xv5tM+1b2nJauyMtdp6e0ArxPdNq8JJXsYsTiBzcuG9tPcGJDEN1MhoKzfU/afDAxELOqIkYYk/Np4Z26y3PxF9bTOI153VWeMBQxGRTl6lI+K6tUDrFPmDOsDuime6k0lz8E4nK6CdccPcu0Hs2lJtH5+iIaSgU+tbjbgU2w4sFlEbXgkYV7TNs/HBXRE6QYfxi3sZlJy5JbMIBrbJV7zrqfxgD8J6ncoE/mPf5BtPJ887wBEromH12Z4nsQpBKytHdyetSG2kUc5J7kkTfOPDTuRlq7JB2cdHVbaed80rMNsxcYmQMcPVCINDAroQloaMd9uIlXyj1TJ/1JKFdm1S7VedemGuzDZYPQuqEhWYsAfuCouYlbP3KVu86PKqGQ2wOx8J12t6M5XSaJHjoJPt4TynULLmBnchnfxBF/WhfwaZVA95dG2XkyLD83hfGUB4haYmYEkqNDzYENIID7g/4R/xHxiiVksFX3gOKDrPPmVkUZWe1bYcZMKV69QzY0/i36hHEgha+pXZcJiHhmZ9LQaIASLXRKVR1eii2FG6fi6zQSAh+jywq6aQiSZhk6hixXUVXPSe+SORI+RyR6tZa0k5CrXq9O3MceLduzmzXUIt422oWsvNMGYoUxKb641xBdeHfbB1GaIgpfZRzf00zuuvl1mDISRI73LpkjuHTvDGRjK4GOLmdPKBntqDwvgVJ4zxXkk7MgakjaVi8WiYhh7iYkkCBa2gthEPLrc23w1+0j1TKTh+ov5dXc/33DMkWqnAo7oHsWtJCdLran6N/ZDmrGymfpWUK2QWAr4WrXgulh0PIdQZn8plOjY9NiitIg2b8kA4+BOomQR/T59FNPvv/iE/sSJ0NJwP2CehRgL+T0i+FLASuKFdKGsHzOl4293mSV8ErMkXg1PGxNWuvy6EFwOgKTbyo1JHJ35LKDshtY3ax1ncMYYR0MdowR/fOceKjZBnFTG7fWQZgvArBJnpCAAddwQDvzqGh/ToQbi4o3V46P1CnrBnu9WwawsnRop7SfyyzVhduwxLiJ0yFr0QJTtRFA3zhRmlErJrLG6oafxsXXqSwfIO3T36zavt3Iau1N/fWa6nDKWyGoOKW6EygGlxVJ0H9OQX67+Wd6xamzockZkpmP813zG/cRPGV3Teu6GVBJGusQcH2EaXre6oy7Fbei5vIVbESmtyKhGps5yCvHN/MbAdeSRYlsNL6ADTjhvLjGsBb9n5F7Z9R4MDyVHrHdfyYHQQn7QNJhlrluGL2xJ8aod4Lx8dvDNT+GRBsNiHy/zW6vtU7xFFknTXdXonuNXWdWBQQ084sx5dcetPOypI7vmPhqHcnpapxTn3azh5BGMT95U6YGjQ4NNt4anhGcGUHx94lvNd7DqniSjIg7iFyFlWJGEuQqED14qXVHycXxyEW/EdhIcXO4flyo9LEl6c4gTnSwOAfS/XXuESYkdsa61wNBqwNcM8soW9Cd2QZ7TvawW8keJrRuAEZ/N3wQb+pFKb0lNc90Nn7vygfT1u1SY7xpSafebTzc2fyojVQ5Ggn01idKmj1syQh8W0flErx89Eo1xvV7RV8NaXBYIwFwI2mLV9+7tdsd9TM7Z+6DitVWmrixViAa6EyHMLz8LMPBji79PIDnkoheiBOx0A/fJbBC3JblrEhNKY+Si6hWVUpXFtqjoe83jltqqGffip90Z7esg9tuvCyDUr7YpTOfOQeOF/Trvqdm+7pJ/JJJfHSPZP+1P7VQi79b1JCjQ9SBDVuA+4P8Ev0R8aryFvItk230XIWWJrUryCknV7Z+w3yPfK/6wTnM/O5aweUUa7Nbt7droA+QGwAwvFlYFiUexfbE11drDCS3LOdsvkq/hN7L6TXoEsKisbm8eQ9NXJEbJCK4TxPHmK+0i0IX/hVNKF2ErJzkpmtergWJDw5Cz28Ku+q/yBeWdObgGDwWjhRi6Pne7Gy/OJSIWuTefL3r6cuetU8bXC6HUPmgcZcofH7Iy/8v3HIK5MzvzhC0669CRHniKGGi+/O2Dy5oXSa6QZnigHcY2jimqHYdlPlHFqr3b7TdJ3cS7uGbpgokyEpdCG09i8OBragztyFKMfPdRrkSP/0HICBftULv2Ue1ndFzFgm+AaT2wiTl4DX5B2bbm/vZA0J+prkQFFHJKlSD1ZVU+PlONq3ldTvf9iLRHcf/iJa/fbZ6wdKs4OSO7J1LRJkkkTfKjD2oE6TV6ML3rRPnQWidcFfg9uyGXquxHxFBuIYQN0YjN940lrpGmeQhd+nIgss/9haw2lUREO8a/RAnZxwaIgZQVSEei2f5l6i6CD/F7NfLg6r+xRytQ+u0aNYm8hmsa6YRr80cLlUF5hxFWZSXghwyteYo+Ra2Ls0lqdkfWmi78MOv20AWDbgYXSZwfo5NReZrQeAhox4W+5+DbKHEMTQGBbkWzGXLY8S1qO5HxRev0PlWNT5Jw0khgCGZilqUDoJgYmTW1zPVLkv8f/cCXSuHS4kJO9+6Ftqbn2+RB/II9DKej14Ho1Ynd352b79xrJZc3Ehwp+3Zi9iwnRBI3R6dXWJ3+eo6u4Uha8/j/X8leLGOmEB5M73iLI2b9vwbQtRKwtVCTB9yeY+Zh+dlt1MqBBtnvRSW8apnvsAANx/ROOFi1Vlq77QllxcqBUnQEXdwQfLF6rJd8jkwASvp2/DD8fibgCyFAURe996h+fbHKyMrfqaRiks/2VsGoZp0k59vJMomFqGEVtTq2GzaaNvcZgJJsSqhB51Fuu3j2hAvxYck5u9cHPjoZ5F4TcWfqU59yzsuUllYgOE+kyNQZzJuaG6t/UEyKf34nJe++xZa7Aa+oQzW8Ixhb/Ksl6g2BZKMRnPZlsYxlCLPtA8yaX29y5i0q6986Nzx3ZrI+BWfpyV6fPHRltZ68uUGzERPN672AZNGxQL6Bc5hJGvErPwPKIHz769xEyoQOCwgHfbIlWnmAC2J81dA5HX6dSIdgUcDwzezo6caEIGbRyj+bQyH98yYMWucgWBITkXZjhjSFMvKFW2YU82MhX5Y2gmL0LGO0yblcTa5BcB0l6NDyoENl4D7g/wR/xDvr4/9ciR4sFRlJU+Kzj/p0eYVMj1+jJ1T8i5ty46IBALqDXWLQUOO8SrXDBrzTLpQf7arUxml0H486SC3fCJSJACtuKGslEXGAjxG/577yDNBpEEwa0SXrMT2nzOdM1jk0EYVg7nowic5xGesz/decFBjbn+AD98cPRIKSYzRmERrCV60nzEqCF99ew91sZVSO5TgZO7b0cYw79SQvTNBGAqzjDjPYjQNCYtBWAIpaxupPTdjKAmA3R8ZD6mkPCbRwaOsEqIA20Mf+lr2yihUivNGOFu1TVpkP+rK24pcou9X5f5cV7dEsUCko8oVEgAwvnpUdCwBfFejkgrekYwH6/KqNaF49eWVbwUNebOIWZbobBhbEdYwzPZmADP0fJBlrBu/rmS3994kHcixT9E5aHpoXMUHRdt6liA/mJPkjPAzPPAEDaiXvUoZ555LqjCPVro0CwigZlIFwVLJCcZTt20YtzGBCtHlrLAcA8jHFjHPTq+pFCLT4PSHM/w+SEmNUZR+IR5MbnkAq0d/7ROiJ7MtkUyOcmj+1WmOkM4Ipmhlharqvfgob29G+72bzEUiHxjrg21kRN5fkzBWPxbekyMTcDQlENh8rndZdxvQcBQIW9q2Z4Wnh8I5UpSdUpy8bGaHiEUcBf83gl3oUQwd7VWh2FaTsMZ8gmha1Bg8AaLvtLwR/c0uRyfhda9luLn3rRXbTHIwOxdsC6YewufQMSGgxC2oE1ntVW5rPOGvbK3yu70FyYnsihb/VSzCuiVrWsT1cUwZccOLXW+LSxQoQGzJD1lKNwNKfvE5k+9zWfN7skJAU/uDaVhbBA1v0HCHWGPT6YsV5Sekt2qVVIzwMCdlmVQ54fy6ZACNP5FBn66w5zyLEg8+2mc1KtIfQdb4tLxkbjUW9rUTPqav8chBbqvoev3MWe3LQ6reO/ETS9ne0Ryc6gBVzsQJH3+bKeBa0LBIkVTMjMmjI3UvcjXRWRphluCxzwErZz1Zfb1foopJJ+Dxmh3tCylwccmyhPGOMqTCTbwL7V1Hcnqldpqn2jqqEu1rwG+zyGHtEObp2lW6ezjct7dDEKO7mxLKN+hKv4ATT3tYYsXp4XsKeIZ4IrMYSSTfrykfH6i0W7q6+U4C9MkTt7b7sy948iLvqMDnme+Pir9kO35C6bFw4M68pretm4j3MPd8mlgBE+gtpx0OLFZeVgJ9v1KNiY/xV/ch0ufTEPoNpQOTRaiuyZuaibIhGHAY1qe0Anp69DP6doKBlvOOLkOnrmNX8b0IlI6jQ8GBDdOA+4P+EP0Q8EtwoNVlubfdugXw6TAcPQe5uZjmIlgSDZj9MBeHLdHaEc4+Ou5+KegPVrTVqceUqnSmUJ8Rmb/0TQPIhMqI3jG/mOu964Aa6teKOZveXjQV1Wr4jtnup5HEI+LBWSGKp++POVC+LCwMIin59AO1uVTR+nsLEQQG+fMWveNdi0HT2831H02E8arwGzYtWYQp6j5UkzhJGHPwdDWSoiWl7yLZd9hukQJAwf16a+gmh/7nxP1SR6LurQxbrtr9cXI812M+p9VlmffmeJPwA9TzzZpAtsGfhGJcT13dTnH1TkPieFnb5Eg3kGPidQ7QftLOSjuVBbNznAvPEm6qSluW4FfFQvqfiBht7xo+tMf8jcDTA2jdwjQm/uGIhgFQUgib9spamHBYV6WmHiUld16cSr56KJflnTdsX3TCCNSN8CUaVcg8hsAqxVG4Wz45zTgfupT4Eyw5ns5NfHaOYTENlAYqAJevaSN+PXPATLJDFKN/WOgRX+rFBGDV8j8zXC3hAimjrbi9TS8+bCgMmRnTAsE5R94gzPZSnTYziTS1OJcxBCHv5fEheHcv4NxicyL8ymEsiQ5tXL6sYMuLa+rs4rfO+YEpz1wKtDXzNg6tlRHT0MLAmp7dQt1OhRFAuU8SzjWR8CIeRtP160+M35pc2ULxtsczAQ3guY11nMrd198AMMwGTPAIMqGV0xaoviDlxt++7Rnt0qEbyrhlf1TSyftT60inY+pKdMZnTcFRkEjVVx5dmV29qOz1aJrGwaXtffxeFjFVIiu3n523sJzaTo8JM5sMDvvJhWAUjwoTBNW0zARpoJXNOjmICHEARIVmmYnL2HhmmScQdJPvyOsj+UFArvuT4U5OF5q1jSqYB8TYiR9IICNdDsh3NtOvKoYwGLtZKvxP84vpN7izw6+YmBzCjwSYkpO1ralgDImkJAdzFwUefhmyPZrXBl+y1DmpRfxfL1NR+SMp9OAHRaw++FUIy3MeAf3CrF/zFuLsGRohWBiIKiTtH4pXFVJ4DMfSKXmnQl4Szc20s/YjwT4PHSE52M0FfDW3PdcLG47hCoaKoKRcBRDoMWrcsvHs2bKwFI9KeZpXa2+JIrMfuL7ViB395aAQ4vbLjFfgES8PqXax/SDT0HiyMl+ns6g/i2ErziAVkgTE7UiGD0J6sZuNoazLNZ0ii6mi9/D9fK6dhrBgLkPTAsEfbLeMiNKom1ZUiciSCq/8CTnIJGh0XwUXhuadUA1nHplqaWevJkk7v6Iza1WCH7SJo0PGgQ4QgPuD/xD+EPGqt8XajXTUbxHP3RmNk/9e105dPXBFcMYnV5yGNLu+39v53tX/YcorezDVV60FYsIQwNsIRUx8jbpXqIRD1lwokZ8C6uJ0C80EcLT8u1FM/gshZoBdYIM1hyX1kv6mZfUCdRIxV1qvIrzV0vn5L4rxyFSz/UKfcE5MyiEL+MQPFr3PJ+SM9OR/nC720weGbE+GQ+SZ7WV0hOF4KBXnjCMP5DwTeylTruvwFtNA/QUfHvQRdToRefppEgyg1EwjrdkJQ/wLyxgqD+Ct1wCq3rw9qWJ+RUV3YFQ4Tg4pY0sYNPWgMvmrXnoeUmywPXcguufzujPM0A+Bft4IMaCstTHujWy3fEUuMjuAu/umlZdZIoCK6jZ+dBsd6sQnlj11Bvb5C8svEgXFEDhAjLWjgKUYCTZM5p/efcwWZMFSpJPwNSK4f1aJ3RNVmrnluvnrigWHKg9nR5/ZN0FQLZ1Fw8/vTdPqKqxhsSiC/2EeCQkRs7LhyotZJun0b+LaoLXq++iPLbUnt3GA0vG15amKzLL7erj3RHcxSxmZiTDXSN9egWL/h6L6cB0gQZxfArV5g/gAYFBq3zRsoCiKs0H3M+0gilcAY1O/2B38/3Mjp0z1xqYZAVC0VaGyPar0iaKPNCHkWS354zIg2hmyGBqFpcRYAV22w8EYYLfwXJTENJx8dW/yWtA4p0ECwcoQn4f9lnArSvwa+n/B7XqrA5UeNCvIeOb8Bb8r1/OuX9LDlyfPqT1GyZ6Zh4bCDbC6GcfBmMjh3qQfJL6vQYGQDOnOUJz16UnRKQGDwW1AzV9li+nc5CXBMdW+S330s9g1i3O/HYJJlh5mC7jJkjFUJIjxqsqwCd+PllV42JIN+egDzhGeDb4iJIAyLmyI42ZpRL9DNbwGHElAYFsWXbejxpMOb76GJrvR8sSCF6+Ea9Y+ThkNS3nLXxLZRfoSquJMCP5I0NuJK08uGQCnI+c8PAF6dDnqKWiASyH0jrok9Td2WQNBlIn92JFRyymDWx/rsWaPNAPsDQZ2tXsKWAONKINLcR7GO7DViGvIb/FpFk29R93c51u9TdDha6wxxK5lTpFLA0OEusOXwu4z/uBhUtR9bJ72kxAtBFXiQi6xtAe8DlKyY8HVBAmJUfZj2OPFXZOXqDpyCe+OmwU/1lAG7vj0YABeNYXh2ryYKqG5W8rXjJEIF7ynRE3Z2RnKnC238qzZScsu9ise/Mp1lqMZsM1WmaQIX8WdSLL87PkKssQCGajhEiYdZieZy5LCkGSQo0PGgQ5LgPsD765mVtNcxW0UDXbV9d3N6SYfhUG7OtJamPcLtonw76Xno8bh5vF//6GSARBUE8VqxFDDIEH3rPDCVOG8nGTkpMHIgJcfb5GL/3VvupXaZXHeqKBSmc66RaX73sl3VlXCYuoml702gCU+SOpaAI6h9LKoOLsFJKcjqu3J1dMw1ZEA01X2e2fOkh5NAqmZu1FnvFkIXKZGBW1J2dvlFt6ieszkkPg/5WlZg+gJLgsCYoFckAnMVwSO7ootu8yH+7EMIRQVVqrlVkB1d5SwhvIjp5GKYBUUtR3hQVtIkaGMiCX1gu2J6eV87j6L90jmlxr/3B/7G6qomVRntc+aa06bm/Xxf+BB8Dqr3RyDMwVcO+DUsZdxrvYqfcBhr3+c4C18ViZfq48e3pNgTh9D6WSxSUYJWDvx7sKsB6ZvODLHJJPwMj88pPfkB6JCL781wNHOMk2boJZegFwahP4Qug46ENBm/CnbHP2T+0BzI7ED5y8O8X6htxkY6C+ystIyhqe6D3xg6Fh+6EWxfLjO4AJmTo5gddwzJdsCH5WT8f+4KW0ofeoBhJGyiue/UVbKYz8vVPRilPV2e1bz3D+sG8HrGHtljQ5n2OHVYcjbpzT3uOck8sj28h1kInmRejqB5S7xgKKI7eZ9quIb1hR3xXenfv5j5dZKyL+Mxkshm/cKFQ4EJvTfE5t0BqZMTQgSvJWbHzBjjDZv7m1tLrpcldp2Yv/T1LOcbqm84MFihRkPYBF5RmYbkp3WBggpixILROGYvlTLmVVVu/eBs+pvvyvPmUULloInG3C/gYZk1jKGiBbIVe3qqENrQwOyXOgbUSwq6Crd2UKy1BYk10lf43G0i/A5GjdpnMH2EkO4BTzrQ170jMZzlB1chm6QDqmXmC6gtzh2RZBrx4VwVJDAqCzn10TldnPhmL5mzZeV6Om8NykGjs9hgIVTpr0wepfC8RyM2BUQTe7CHVVdmTIq2E5U7L1gBO2+ASz11Aukc4ry8a/7ytxap7hn3/c0nFsIAG3Tq12664/9GbY3a+ZAPuRT7fdw1lINq0izBIsMNluI4NYoLTbKWkL6khGtyT08Ymeezzd2IkEaafgXLiq1jsaxmqPoCX7uuBJhKmdvPLYa8nc+b3kv2aHP3Ywlf0jDQ5uyVxMt484s+ueFtmxQUm0J/QcFiLToGh0pt1MRZ8M/KcLoe0/2CNzdKtwZN+ljxAz6Kk+0ItHp6YNh9RbfHQ2cxlUaWkPfxvnI6luaZqNn+Jad6uLtmGl9+tq4ez4b4ESPo0PGgQ6HgPsD76HsiR1ykK9dRRt3Rmjeul/Y9QeFCSM8hPhaea7ALAzlh/NXPZKQ1CQ397oUnV5yFpnFoW9M2MPqhk/r+d1rlR5782P4pl0oCHJDF9KwXYWmWFBE1JhwwXreaYv9e3pgSCT4yD+fYbwgV0mradF4qJEDEMT4D2nrVxEYgUfdKEAisggSe7ugiaxpH8yc9FGAdpwfS/PMNhI71ux4Qm0fcu2X8X2d272XtOknaOX7sBBDIb0w7mAO88pt1yk2wfwTEmiTrx10vdrX0YnGg2EMhguS5pstm66LOXhOWXbeziRDGc4sjo3zlIAjBVH7vuQCZlbjP1pjDfOJZBGRU9GGLInN69vSfh6rSkawEw7PDc1nt2C5Qv8XzCy7Bq/VpT10sGUSc32lx/L+aOvJqJlfWr/AQrVGFSFR9WscnwWPpI/wMfq7GgJ89QUIjf5acxxEVRgNE+q5rM0kzRTRF+4eoBY8hUk6SH3SOMgBJ9rc5/QwEaerGillVaz6Lht01aeI1+uHcDTHDZNIA25fov1klCHL3Edrl6b0jM74HtT5S9f45NQmOjaXPlJFjYmUI6p8mDfLsPy+76XzV6fBiklDBeoy1U8wpCw2Jk0kaVi3qchU+6bz5O+7Z+7nPHrvvcRfrQMJYfJohxh8LMqBov6hwEPaRMsUSlmirFKOs9Q+t8fWEbWVY31qt8syatKtIC1qAOaVb8elielwd3eYUJIZ5djt2FnafFULL8tBStOjLhLwKlgU/69tft5iVSLjWy5hhaGXvqBQnnbcFIT0eRx6f289WWVJqoPqa0pzlT9HLDB+tboAofMY4NZyhlQcTgSbsCuhOHQvTy4seQP2DLEEj/Gtued+lVz6XD7Hwl+eI5VHxPp3hwTSR6fDpGTn2eGba/e0LoHAkBNOgfI9nXxoRMwBohxq4e5tgVg+tHcrECWGO1ox1frrjQsw/gNMJy89Y6XpzJAse08R30u7aF6GXBZE4bx2pZcoVZsaoOC/RlnD6WcpTq5JB2LA5hZUleUopFGEgjmHbsmRGeN/QZcZ/c2Mi3CQkHRWk040+laY1Xy+1lk2Bz5k/5ABeQaAly9GNLhynsZlcIwOxDHIaCPjzK4bXzhuVLIaO7y7/8vZcdGQ7TGhjcV/O4HEm+U8oewWuos1AgXgJsgJ6kEgOucYSfOdZDfmQwqJXhOgoGKS40mSNEnGj7fEbVA3MVssfu4DigW5X0MsGQWm8RwFkOYQKW2XF1OrXVElEcKBF/UtGaobJYzRLbPLX3dSXCqq4XSRo0PGgQ7DgPsD7EtonSywI3u+oCTQR/rMWcPIUYxPgAPHVCSjAo7EM2piskQd8rG+P15XYGdzCYTf9bkwf/I9U5uIHsQvDihE/mrHUz40U8mfd4LSswcHxvv+McYJL5CQpBHNiDNSemzRE/qzlGc1+qIpG62nbdRBVBOEat2gZbKD4p+qi1LRmHRBrtAc1EtPR2t9DoyRPOtYiWfSjcC9hTRUoOI0/5MSUnmwxNFzFfPuJSc5NDQXfwm95NbykZRwGDswlwCBaiXCv1eXzEGS96Y3rM+678BgCWnSgX8OD4nX2HxjnnM8dn+k45gnwp9ahgNB/0x67kvwpNhIQ7EOCk86s3rRtEl3aY0VJX5hr5vHtHYWVdDniqQoc6WAE/aOFTI+40wLvsJVLyNTQ2OYF3fL6TP7odim0vRLdgk/Z4N29u60dVsctI7wNGGiIb7JJdyAgoDmdQ8bSV30UgYlyha43Nvdrj3WNiw/wn9eAK9/9gzd8ht8fAd9iN6virz2HBtjyUMcSzmC2rz2Np/Y9adERmBXiLxk3xAr1wPtwUXxVKHyUa9fVhoIY9fyTxhRE4BlSGPkCBT4DcSxKpEF0+CE+xPudgzrKrQ7YjQvEWY+yIypBfe6xfClvOKfAMc66irq0QUMzG7bRH+sf3RP38n1ua2b9tz/5gNxCcuUwNet7Fi2Eqx90NfURCPQk9Cb+cQpxPp4t3QS0fV3rzwY+iDwC3QK+42bXfyjWb4PQWAKL9lD6jDpGcyzIE8E9e8hSNwIndRO/v+97SmS1dVohWZT9Y895LDt+4biql+Yu1h2DRTfPINZrMw2hACY+u3Xtr4umaCLlP8RKgVaT4n1o9L29xqb10hUlPGWTwK06i2dWOKlALzbVhFTKgXR9t1K73Vd3SdZ/Zwzd2XtEn2nJv3XR3cxCjzmqUnxym7U8+Pqevj1yMvI2T746MXNwrkEeVlXNwBy3nUFp80w6KZfrAjZCKmLULbj15BStAxm/Th+Rf5goLrRU2Db/QD8fsHI+mbzYOypcYrWBQntVey7Oz95n1RHjFfnxFlxoeVr+OVTphbU2fG+RQ8YDObLCPnOTuAad5iNIjmWAQ9x4X2wFRtodE1kZe2SHgBelPkM8ZSpD4NZ7kstltSOpeaHYrCbcupjhhWwYV6fOBBqzdNYPYcBXHMSxYRZKrkr5NKWxbfPgOzZtPxElUkZweCDyZl4N43BhMyNRIWZ8oq056EURUmSizcxZwLnBstEMOHymuziikxaLx/7P5/Xv8DhKdH/IlzE0XsG3mSRo0PGgQ7/gPsD7Ck2Fk8rAfX0c0mrDRZgsoURz/cZqsYgzFaj2gPj+6z2WThjomiK1YoyEvbic5kZZgOtKfiTrGdqIQeEpweotz11FzfxVL5/i/DMd1cTjGq1bKDO9Z4jXa0Hhgmu0nEi5kmoa/pmVIfBCJN+0NtZa1XCfxUJR6S7eu0dqaVZT2tA22TkztMAUAknOQIaaT9xYrwBeh/99YTHl1+L+IR9gS9t2YSnyilUsR/Fma4eJmDwuJBO34J1nVZsDwGuJA+fSMeaoFa3UVrmoZ408SJtd+JNiV40aCs/d5/CvzHqY7Th/OGllOXBYMlsMyGjafO5pXgITgDuwHD/3otHOCq/AOC/3TNOUjL8eyRAZTW8dyAd80m6OwAYjaXkQtJFfoYYS3UMjMtJDRP5ipskR2mr2yqC9VHcuYXhtbMPLIuFBI/xrbZipYBArrBZV8YfcJ9gl3xnTwn01iLgO3mDfwnmVbOMPRC13mY3t3EtvSXbNxwEOew7yBC5uNG//nIlFmDdlaGI5EE1YqJ2JARr9nxSMSsBHi+jK8S9TfMtr9Kh+3UpBL4bOoEFCPXyQ+F41zknGzEaVS5lL9VhN+WYxHyyFVK/5sMioaP9kZI3/8FfUDSv6y7g8Z+GbsSjyqPi+lxSFAiZC2dWwG8ZNxJNw5QdOa5CdRZ/NLpyRBjywTtn7cqjS9GYhq0YluadC5LIWUyZTXr0o6PrlmDk6ttSaH3iTzv6+IVC+wHXb9PHW0HoAViRF4xWKPw+hR1Jz7XLSOtlk2UUOkPM1/uuFpfEKhoRVFY3pp3FzdUSiD+e9og4qffQC/SujaZiBO8e7CHmpZ1PVNGER3ddDjR2v1WkU8A0lPA1KXUzQ5omAZ+eGMIAjVfSmhxhZ+z2ASx9e57KSMVFVjv28ajo/EaaL3u93akPQIVqly6U3eaTqLMfnnMa8cfq65naI3/loKJrGfJM2p2G6futX465x00/3naai7QaxzcJbNujfJdq+EfpKSgVEXsT49gHfGXFGoMJ29NeJFyhG9jy7FFfN0TY/d98+4tDPVPG8fZoKJ+Umkez84jhyNmK5L4DqU8SfQCPwhhCGaAyhkAXS1aw7priue+mWT0PC6mmhTUG0Untq1op9PWWXAIUGz7Uf8WHVNmZ2/QYajiv9bCjnmU6YRgwrYh7+0NRPNg4rQkjXu8dMqVk/Bfa3yAY7TPIs/fJDy3Di//Io9Nn3RHIsZFyoRxaLdFPQwxXytNC986vWp01nLbe12Xpnr7SXOZpYvMau8hP8n0C6VSWo0PGgQ87gPsD8DKIkqrWfFIqbQWjnOni1P5LjrT2JzBqRlOXeybbVPAPEkSRhpZBWEg8n99/HIZxgQscDWD9YVtNEheIPMWg4YKm5chcjde4OdmNlZpJ2QWMadN+8x09U999xAMTt3NExgbfSRB8kuVsQiLdZNFd3ULA1QSq5oVlEN0gaKQQjbFZAqo7F2sbr+uhPAFAhGRm5tNnKinxtyKanIRUxFQmyQDmH1TFm6kGCVC6g5TRq9ZlQYUgcRGa921YjNUTbrwd/0jin0EKqPmENkmmAoJHbHrXFJml8UUjmXO+quDGYm26qjdvOYjB/N3WO41YfeR2BSLGE9IJfkciZBWXXLkX/+m38A6+WVTxzjBLAAEk1XHy6i0N71N+I2bpRb7uLcGMeBMQE4JLdWJu27rcnuaUDyILMOCsucV9PPc1F4d4dJDxq1st3kJS/r0Nrj2BHjl1auIFWYrEHsKKQKJwhJc4vgIJycZJXFU5snBK6aJt2pJGN8fofFE14fRFTql72bNUBwJOheGfV+got7ZGXz+riSnZyYwBeLle/l9kz99UbSeEtBtSvkxEILWtphd+9M3CmJB4AKpyuhwusf0J4mrlEyeN3mH97D6oDAah7K4o8PcyPjg/25TrbOsR8KRAiQzUdL8kl95Q+5PdEpOVPv84ksajU1sm9KgTbWT1N2MpRVPhn5YkJp3hsYbET/vZwDy9xScEpJjpY8wbmnCdWtebJbOu9xD1n76Zeoh5e+GQ1h+5dmjAgUCZkoplJ343BS8X3hrf7EKf9vRfwtFl2rHbgvBiHYYIz+Ldaswiw8oMcMa0aWyvwuQN1+3Pd6DJawwey6n6o22vTC6y0dI2ABjElPAz1lXzqe19jxkVURsEVVtzT70vHbfaPYD677xsVpDRZNWl05HXSFzRW7SYcEcJt8dlSJw+NMRO+qLfPtzFYyooUl9MkUR9y5HsUP63Q2GzgCsfCt63VCqX+uHxa7QgNFq0f1I08+kAG6kpN3OfKNr/0dyDAgVzoDUzvQ2nxqINi8Po5BhbRPT9pXV6rclCUeEWBfKZ2i2hvLhcrwTA+FStauNUfwp6D7JxdbZyNboe/clzUzvCjmHhaWYUwGlQfRCScqq53ecHn6nZ9iQ3sLRPNW0fy6BcJIclqp98bMRYtIeiFyrmBiVT+P4iJ9PCGLy27jSNE2lnZflRqLrzVcXMrr3ujHgsBw2Vy+Go7kTiRxAAeW2MZ3carDDVyIagSMexRbA5bET3VAvym+858c0HAqOC7c6VC4C9HuYZMqSho0PGgQ93gPsD76Iwlavvqm0ZuXjwCs6Ing0ooZw5s0BeCPFRFSO/+1MycWXHtGAauI+vlqXgpS1XminJ+Au4DTH4Gwp8kqRCF3PNY30drzI+nB2IZGxUDjTS90ntJS95wMKe8RYevLjRNQlkWajHXK975sl+eFMqSY+tA7GhOS/zMsN1QR7HiuObbSApmMlZD8UXQcG3d0++h3nWYyeFugTJmbV+vblYROLySqOtUP+fkqmJzSSyD0hkrCFqanvCoueAXj5KM99we/Xz+iNu0vaEcY2cuxpaXCyHEkWufjBYMhmgL647Qv9mn1/QVNRBBH5ADC4TIFVGthq22Zff04S5p6KrkRVBWvQvyaFom+FIUjUh7MpsrjwOh5247VMEgZim6Qtw1xHBJbMeeDfrpbelc1g3TFXWGWMwTIIax+OjWrBkQZOn5I3wNILkXEguwZZ0hBdRCGx7zGE35YKHkOgiEfPtb4EpirhGST23nsIAZd7j8mPkpeNuqPnAWOAJf5yfWcVqxCTVr2Wc4ClaqSFobhbNiMkbwBcNkEYIjmvBdLEqvaK1N6rcGFafcTixHWe+0tQIVmVbmjQPhOB/kzIll2Btjhe0D7WFuODFTyaEm+LJnqN9x7nXJKE+WVxsyoLECe639Chmdoszis0GfsDrS59rBldpPxyS7c+sq8XsyHORRSjHso3fYspMaAMOegLG/mEKfW67PoMyer013PjQAhcVLSzJHnil8Dt8Wmtr6ruEabRA3jORuAKqYJ9bmIJ6I5VdV+WxvPWQDMXpBhB16cPXoomuLRQkqzXnEGG3Qbl2nu4RfVDln/bsjTmsjV9LAU9b37adKDKj3jpLrlcW8OIh4pTkjPGQIQe4XdGUQ524A0U12kfhUPWKCQ50rTqlmXVUdKL6bI00BMrhuvY730VOc9nx9iGe7faulo8O9r9XQSJS2YKfqNwiD6S2ibtyQO4vBvx8v2i/BsmPBq0sfJpnCnzMs1o0WVZlwRojPQMtVu8/3BssF0fW3NmzKDKE9LcAhqctXe1KwkDrcrGgDv6c8C98yQNSMCeS942fHPE0uvCwCkoNIVDwY0k4ryAr5i86/CAMUHflb3dAxcsYMla517yebLTMkkDAXWKRgGXBX5kq7kUEtBYEMRfwzN57/q0D9QL7lFXRc1hLICBAJ8+9qcWhVppba4VTDZpQ0JHlYW461n89mW7wXRBeezrCV1IBKPk5nO2Z/DPt5KomiNauTnxCXKeh8Rv6wZjuUb+n8CoMJWbs+gQ5euaOnvZdVXz73vSQo0PGgQ+zgPsD8DKoD3voDutgqMBdMl51UyKGHZBr3eaL+FgO02L3EPWWES16iNcpXdGukbdTnRTDIIdLPDWviU2F4MuI6TpMKG1qmquAhi0WY1a5oG6quc61hxZomDWUdcEl6C3chdQu9HAt1blpPj8zqMBsrbZ56W8JdXCEb81DzV+e1yqnS9LLrwgpmGFr0n9VBM+zKdpGtlScKo3P6Tcn5WbJBiDil/m/H0T69snvgW6hk8dm+Jj6KzTTYrpZjcDUPUoRzm4IRxTzHm9OAMtcbDo0N1pOL4Bgu537xqgrMRoqFxFElDHMcy5XGy9qeW7+YPribachxaGvketxZ9zXpkJ8w9cveZE7Ps9khXDoLnj1jnqKxhDPeJSM2gAlQUwT9AvoEVIunUZv+FNgt/Ur6UJgNrNjgXrdxwrBl0pzGoHUrxCSxI/wSszF6/0p6HtSHGzBmf6Pw1WOVTWyBwe1TzAxbHTB7c4G4pmJJc12bv84mBDSSzeWyz+s/RPKaxDvTzPwbv55HfWicn83ptfAwnxsAPQTfd8xMYqYSBtqCGqyRiNl1xG24Su06f6W34E8s627YuVokI5adI5iEJqGLBQ/SVGucBQT9OB3vTKDd2XY67nqrHDxCRYLYCnvpDzd++yeOsD9ypCnYKEP7lLr46A2hpRZC2KMrY1j8n+Zm5iamUYn0ZxbylQGvS+Qr1RmBpGrgfdVkX4QI7tI68UEMTeGWTLGiLXy4S71UXoIrHv4ZN3inCb/j8MuCkvZVLjvRwEfGvzhBxGAQzq/Tcs6hMw2Vk0vGLMerLLXnHLTK8iw1d+a9NzoMWhR4dI/rVZ4XzoPxOMAR/VNH0rvJIO9OoRZQ+gEkfAx4nxrWIenE/ysD0av/z8nfftHpj5FmJ5TUC3FE0dXRBNcL4O8JtbAgS4lIN6x5HIYEIGXz9vPDPnzois+gJUVtu4+7JFuuKXG0/6/IyDMoP0mTNRTwUErasRWs/swmSX3lNySQcZq404+Inewp+ZBf12o+1vuW9dECi9dkro89yD15dZJM95LsR1R91omO99mGPRcn6gJWgADzsQtXxfc+1Bxg2bEI+aa7b90Nwy+CAcDrBwiusH22eDqgeJhrmglY8KO5SnsmjpSs0o1vq532E8N1kmLNUiWnIiASNzrHf2kgGPSM06fBQDaLE/Eh5aJlMqXNOLsxfvEp4VyXLDc9Ruj42R7zSmO40zpIPM+HVn358/Yqt99TT8qeVUFcWLuAJS1TrTg4hIfV005tQDCwNaNvLfB1PIf/NYQvHSTo0PGgQ/vgPsD773a1qQSffhQUA74P8OfSUbhQoFWNGxBap1j9Vje5/htSfozd2oyspU/rZtwBQHaViF/TeAC0QFDusnOUBb5hohLWHCopIeu88MjvBWOvD5zZOg2+T4KXP3Gc+uVpjow99agbbA6O77reL4hUSjaDzMviF7HGDqZbhUjaOoZGsVELFTQ0RvMl3WZ7BigOajbUCiXL4Tg7xLepnolN0q3nfFTDXwl2UYqYetuXCnlGkRlD+6wy72HUavpBAjnMM8KU3krT/4o7kYVY3ye+tB6XQkCmWRU2tSS9t/IP+JsU0qcOHqmaCcuCpbCL459el0lWZOUOwtqDqRPUIzYBVnn9W/wXBlF1f8XGv+bPk85WfHUFc/iSzbydxUkynyeWxqN3zP4WKBR8u0Xc8FfDJquZdLcZldjRyO1srpZmW97hJbxqVEswUk1jSDcGq4X/WR3ay1dwCIa9qtXp+J2tOjhAzIZ+DYn1HwK+pRXggwPW0FK7CopJDx6LW3fFlI3kxIuum5QQFjbxZku2JLnMkkchJHfX3BH2QrB6S0+kT2ugukz6ALphWH6euGSsVfUH8oH6S4gz3H1GSzLAih85MPetlcBcrFSgZhRTKXmM8Ymkne5GqGrL+FWZSkZVel16CSDZvqf+eqyW/fPmiHD4uI0Ev8KgtwJSivRGPb84jRlqs9bl26EnO06kk3pw/ahsw0rJ8AkAvA8TWLZhnBHHyMDnZqyI3kCGVHgc85KxvdM7+H97UPL5F/2SMqdxryrOyPMoyTcUJyxVRiw9vZCtXF89FBPpRX+R8QOWvnAyLKZ2ybsTEmx7CtUGhKjJVUdWq4ks9GcTwhnBMZP1z6i8QJEju+tNtCOC1+SUoaGwQpa2J6M45SyJJLaYQcW8zlThbHNfQ9XmFsgOpL4cqbpl8vuzJMMDMNMBIVOLp7Zr63shnh0Grnar6AAWXIp5hayuP28ERjf+PJUdUj2qSjQeKg8Fdln1TARWrN/H1/fJnqpwcNdEPrN7xHgXx8MEQUnh5FpZeW0+ZSDVp/6YlY15qhQUlFuc4zhrA8KPRdbFZq1HHku4Ij8/rXEBvfCoZwUDSYTMpRYfaOzqfy/gi/P6szijjObSPBYrTO+mMkJSAJIOdZoS4OkU3FK2BGifx5ib3jnvVrB6iJ55+j5fdKXpMojbev0DEN8Z9N/IbkDd7ikY9ppEpjOdOsYFe8QEXyqN+5JeMkgC/4Nj4ILl80T5YQpGlZSdnc7d449Yj682+jPfIgjDMbQtWVQmOlb6ygLp9SVo0PGgRArgPsD7FysblKg1ZFDugv1uigvdXpEUgNupCm6HLEM3fVJkdw/YAUK0VcTBUzCbNZxvV2MIi9zN0YB5xu4aw9m9/dNdst5d1l8dnxBfuPnBUnuh43ypgYUnD7DZg2iF6PTUXekyF6Lqc7+c/2uMhQ0PN085Av5pu1qNbb3hVYt990vI16JcFuU+A2HhpcleXrcDgmi/O+08MHGuXI5Xfkqr7LkqnueYhHhn0hC0IPoth0SSIUFftYDxHtriUItxP0Z45AQ8vuiPenxu21okfspnE0e89r3tgf5/DVKV3ufBTqs20QsObE+eaup6fFD4OrxgGoHMcmg+T7CZlLHz1Pjbqfb/M7QwZApWrUwDUb4R2Wl5mppGGL2LVArIYvSeae1E7YMC5v+tfwZ4+25RvpA7XVhmstGoqh9BT9S37rc2KxFhIrxkgLo73oayRKi2ixuiFiSmBjSQU3n1vCl7aPbMA4MJY+RdO5/eVjOcvWnz1IqBw5+VPue6OeT9Qz6457zwEAgqveMClbe4XTPs8YSBZBDyhRmZ/unGwwjQsJ0wOFMITMmvUhXs8WkdRfqxpzEsTXW2rmhV4UxOfqbAmtzMpEJiA/9blF0WOgZmGeL/2ryX8N1m7J/oBRNjXtv52Sn1zgNS12YGKZHDGPMyAcgyVS38Wr5cOOFTjFAjhFldCR8+9h7lvVF2AefFNPGtR6zG72Z8bjpk/lHnymJhIRCP7aOd1q3k9lIvwpQ+5eaJkVJoHIUuACZidXOvT+TKqd5Bhe9KcCPQMx8LYWsOHkF+kfclNCOfkQbtE/41oAytc3BqKLxWsYAHZrJRq3yMo3QvtmbxsQ6tjt3jjQdWCFCLK2Uk/Ax++SRW2pyO2QUtNkp8JL8iiaiZuUAqhARWptTgZRHR79J40nmSaILDiqFAlIbMaoanyIDUB/G0XjakgLilhWqHTOjVOzrZM228duveZVuSAx9KaRUgWD0mnBSHIke1jG+woFHj7P5GYPrzFUaGroEZcolSSej4+7x3ucWaZvmKeT+B2UEgDKYMQVqVasIBu1GOvBOYKtFBB/CeAj2b003wahbbuFIQ/9iHOkPrwrl0MKyHoaja0IE5rZANWb9hT3ZNqBCR9PsdJrydxfCbxw3MEoKNJqkQM+Tqwc3Vbm9pY2R2SL/XAeu8OUa+HFFcB3nqOXGsYnzTW16ZoeR6sHsNgcVzSdp02pcra2GkG/8OC4SV+bzEPSPEhIfiIm/GHlk4L1Muu5gz4Vm+klwLjlNc3ybjo+PbahXgZawgtSNo0PGgRBogPsD774EY+LQPmBxOo8QXhFn4esw3l23Pu+rdel6nvRa6tcBAWGWO/2jhED1zQjHEUVJtida/A7ZdA6ovE2KhvkgMCEP9mWXdnBR2qaSCNrEXX+a/DmcBii083+3z9c6imt1qpV4X71oK5d5SLGqtvOEMTivZDgOHpz/VCoXyBWEUsdiB3W+HukYBon6bOBKnrMi774Rdkw8sABNgwECa6KSpDcMbUEOHKiiMfIeIbJbPVo9ShdI01n9El4oDajP9EbSn1ABuMkzPvVCd04is2gEXxMyvCi3HtMZalMqzqLMkHgwOoBIsVf1V4bbhkYaoqbswIQJZYmbOxyY1M9ba/EP2eugVagqYzmQYqx5jdOLtXDwO8kpKde9zSCqbLt1AxO5mY/hu4yz7pYnclZIRJiMsUOpcDH7cs/rvnimJy9nFJPvrnQRsuPdJ+B5y8DjYmz2mzHrlpPA/p5wKTv6i3V6664JKDCRBNZOcC6yid24sJiqZQgTi3G7EwmfWjKi2NJEdhhi2xjNdFM4uQF8aJ0NC7Lx/d/Cm0tbwS5y2E0Ed5V+HZELtKrdQglSnaECLvWC63UqHKcfe8598anpOXKxYkZHAmU2D3YoXMceS4gzOurV3xWMuEhMjqCy2J9mg/Uv9y2466FO9hMgMvNeLoozFK7BlZoqksMyO8rCSAg/m2Dd1pOQhRqXjtKaXEpVwKJtqIEbSokeeFKnPIurmHPHcIaNypVBE7oSmHCged+PJe3QVih938Btc2BHs5kUoDvQJalNQ/deEggOkhCk+dQX0L9/oA1xdJVtxqijKeokZfwNMbZquLMBuCSdk/2nXZ8SH9kVo9P54Xfl9NEy+PfUkfA1TDx3mnEu/wQLjIgaiHnTYJh1TSJ7XMtWZi/7GEUKup0aj9A4zI4V2WUzicWtiXjHz7O42niV0AkPFd7LMfwym68CUl/nbN+xnaLCxss9K6jlMu/99rmpkj7RentM0moFi/r2OXfnELdvXNJe96+ysBih4/nR00JnWgdqNSI1aQMkWHfTsOf8h7ho5JafnGt/F1rGoqYs/rb25L7PbADbx9aqzIQtYF+KxvjKK29cYcXPhb9RVa0u6NWwdYeGzSKHkPJKBRhj+YoTTQVOEdwiEB3ShTQK4EEVd6gtitycA4+se2j3XqC9D7IKe2M/1S49O+NjHiVxs7aA1tx9WEL7GjAPIKxWcehmER1+6vwExSTZJXSuTKXTFnFIwzQZhGmgJfCRTAZayLo9ssiGgQsD6RF2axKGV2o1J06Y85STo0PGgRCjgPsD8Eqt5vlKzxJdoUxBn397p2jGwk7BGA+HurJhOeSrKBaHLZptNdfT1dgr2XKNrisKdQ4ck3HL9j3HHLsfofai+ObfPVxHXCgDXwKKuhncoT32wkD0sLnReAFTBsu5hCLsbGt8KivN0f+auJ76Pl8yNCFMEIH63WPgn9ej5ZHMfqVR9pms7kTP6dr7P/ggjH+1BkC2N9msNN+7F+GD/INd/Lz4Xka4WYL7nFjtLfngQ0Zc9HVL2Lzsrfa68X9ijXBCkjwDhOAyZOM+ee1EUOQF6pxCK0VIyXk2iG3ICLMQarp9wth9SnPGa7uIWB+xSyP7gflNomeZDznuKvrsDbf0C8DMifBjSqhBpqie0sfkMG33rcr1BmtNjqq+eYVGCbsQAzgHQRC4E6xaBulsnyB+6XCPQiVbK1wPwAg3ciToFI3wJ2jBqR1T6KckHXJSztcp1MfuiY9e2kMkIKpIOdWWtyKG7djkw/AEGCu2ASFhniwsQANMXXinmoxMkO9hfCVRYeDjCQCHIJQaLuesmVJY3cBO2fzyCKTspUiyERKafq9UxLFzS1VBgyKkf9rAClua1xe3UnHWSNmbd77F2/OFd3Kn9h0hLLbf9T0tAIikDU5vYwKFsuLXwZFK1wwztVjlgeWaLzC3BUMu2ajgbN+nRZ2+2OuRFgM0Zj55eYLe47woasGRLoOjdTzvsr18sRVxWxOyC05vklhKqQO45+A2Ro6XM5AuQTVARj8MyiBd6+XDlXpIawfctKs52JZO3Pqef+QDFFlgGCBOIIaW+avv5i62Ehb+9WVZTzjkrnp4QoZq9129+bu9HK8M9sEKe58tpxA8iwtXajVo6/ZOukDUk++97fS8E8qfJ99vWiNAMerVbpuZyEPYXD8MNBkwqZDUflsmVKCKQzUh0LM7n4f4VeJ9DsrHG8RRw7ESvhbPUjvuvfqCFUXJa77cb2eXNvshLtt620HNMzoGEjeHEJG5iYPV39idh2CYXgLj+EQHvyQBkxyHyo1IGUm3B5aUSsRVlwSc7lwEofN5wwZ7MATrDQvjexR+ACsc5zqItVT3TpPC20io3o8GOg/WD+oY75Om1jXacjaqRvaozVmLWuVbAXdjQcvCuk27xqY/FgcrqdjNESGHcbg5vu4AlwGG3O8vJyWV65AU2KYLvK1UlaBtKK2wSbqMtOsGMeEOgiUwDqK5M1LDX5y2RUvVnyAyXEHx6Awr5RtXpIjwmTMF4Ms4BYlnScB7qHJLpNiAbslps+c6G+uHmsejs/ZWGXlY+7SKo0PGgRDfgPsD8DM894bmsFeglSLkXmTk4Xe2eS2dVOCQ4aVP2Rve9SqUSeuf3D0Z5vSOGltmGi/8mZxSi1WYXTEI9CdW2DcX3StAZ195Jq8KWnVwdb8Jl7HFAdjHW0U2hPulEMLFZL5pZYw9kxePesJL01tpFn2hRgu+ILFX/pW5SqY35WtaPY4WyBVxpbTXs5RdRXk8TYQg7rlXjl+vymEDTksmom0d6nMxz0b2/nJlFc7Kg+/g4to4B5HFRqm+01SakGBZY3n7MiR2s0tJVaPUuCJd94AtidFrA/u1Sa9tScHcqLHTZTwIe+fTLLF9WE6eoZ7U58FT5fo6c4xD3vyFryMJLTTV08ryZeUZRqAisSkVTwHnx15izIjY/JUpbkfQAuf5nuFnBb05S2VY9+tkODqwAG2KuAfaxKHp66FbpGMQlWycRI3xlIIWSOhW9Ot8wUPP6SZn+djR4P0pSeZzr1pXijZruY+Y6uUWui7dTFzJTdaab9Pha3sYhg/wCGKbApdF4BcA4uSmVQMsiCCdaXxlcRMt/l30nUBTzABfluoNidRRLa7kBnaXhkZYo3VS53i7fHnybxaTQRSyGGXbSero7aLaR1doaPmAtQqSXO4iUDVKCj3rpRxrkLPNo34AkGxI6GjiWSQArHSwtBtqklmQ0Vugz3/WjwCl5ceo5TcF5dLbbKm+vsT17KtedCmLzQ6VuDe5vfpMrU2ZgBrXT7Sl1XrrWnrODfBWUalvm0GToOs34+ffW7ore0dYrZ/D8LTr2b/3dGN602Xh+7+PxruFJnK4Ae4wxPk6t4BTDeLBpsYTmANstLCtsGBTV0xTOatpLwm7ezGakiqux7BTsybk+e5kkPAwiK5F48wpHMsyiXFu4SGyotDuiRFXypyDgciigdd1w4s7FOYQ1ieVv8Z9HT9RU01vcUaxQ9Muccw9+rpBeBc3EnZ3nGsUlRwJ84sjlkvBkDVMaG0OMj2xz67ROzYw+TO/t9SIzHZN1sjuGN4v4+uxqPHshGmkNPY69rpwFEx9tUm+AXs6NIzIvrihe6uNJGtxLGjD6W+X6EsRJj/Ng+W0s1Z15D2GB6t5yvDkp62UFoBtSSRGSEbnH2XoYobXAkBd1Jg38NpgDS4I3DHttuty06r6o+p+Mof4ZOPSI68sjJ5ILuTZ7l9xrHDCgAMkov5MC9LBb/7rxjKp/B3LkWxPl7UZuw8B2CTd3S2NuCgMsgMNdtJmzKiFKuy9H8J9cIhk1FUM5+7DF8RTJW7chUt8SjGL8anHPRjdeMfEqWSKo0PGgREbgPsD8YzsjrVbzmG0vENX+IZFdz3J2Bmy61Zghf4oJErzhUGQE7vpDeOJllTmhbhxsDvBj/HSF0Yo4TIkoEuM6m/zu5XIv1KMfV+Y8DH13zsc7RopyGmGJp/IO2Y6UZEUDdDcZu0itK964+tZy6rXnNqmDf5/Wa6tsWlnBGGgPNRnNKR+9CBJ18n7wU6mgq22HxApCSLEppMHO5suBW7f0XJbEPqHA2vky6oYMfTpJ8gxBQnMiq5FOe1679maOF1volTHzxBY1bjCII8WAVAZ76htEffCjTJz9czpq11XNCJQciObJ13cEuL3mWD9KBkypC3iLeuDEaou+TsiXPWtZjW9+l2IRYeenrO3CjuSiHk3PF2V9xaxR8I3kJcFA0hMLzqTmMgRxesMDzPUgjn0wr+ELv7ixogaCk7dsXY8MP9f5IHsnqBAcVkVm6KUxrI5BKt/EDiK/7AFCx507hY789VKqZWPTWokmApGVZ0rX7nSOGXaINzTvOUq4JwqeG/z9bc384a0GWKdYUsZkx27vMZiYmu0JDA00VrriteX5tBYFjHAUQYdJG3ZcQiOPKDEAVq5VftgZkG9E7Yyv76meCuKXTWrEOIyfJD06Z41hekrXuCJM3z3lJNYoKYIFV9GEHKuuEMev7rgWAtSn4voUkROFd8lj8b8c3id0xOc1vWWRPdQKkqo/CEW8IAHcfHWV+x85da0hIAl+0CmKpp9ltfnjvKpDjeNqK3aLmEvIIMDJpzijtyitfTFA1HFiOs/+f3gadv7uKjrtD22rFd8HszizK59mLNqG/etfpC3iMCYpCp0C2nFS/NQQK+8nzj20HefPI1SiryaA5WfgHhTNLW0jFQBtxpOj6inhEquVdCHaYoAaUru2C3O+S7zC6s+WYZRtORGZxZTdtnw0yX29CHt1HETB/ol57p/zYFmbkBMoBt9t36ckUZCM6nLvkquQBVT2MKWHqeCQnHiYw+BZEI1Nre9JK7NU9d+bEsc6YBAHupraWanczNkVZWu2s1juQviyTk8e1UR29jZKeH040+p+dlqAkQIJKeWnSaJDx1g36eTZYVZQx8hRcG4K5TUlyBrXzOCk+4UPtHPmctt/pLx/c0rOK1VtHgYkYc74a5ZmycvZJyisTEJm+2FJGx3efK/1UP5wQQsCAJJs4DioeK9E17WAWwnNpxGlV2pYVYJ2hL9lY7ytWr1qx5dsuWBm+BUu8tazm879Myn7Fz3pwNQF0+PkfZ52ZdoJ7YgWkn061fnI6utOujC4/EmcU5LgMUfo0PGgRFXgPsDQnQVRds53IunatiROJeLqabE4vuZOGMWowfoDDpYa6tujfCaL6k559kb7IDY2jTmo+trRRU+aqcQAC4Hy1Pb5AluVI/OJ8xCD6R16OZUt0FWOujxA7gDMEl1xb6LpcVGTmopu8J7rejWFahI5rGKvDvapjmrBgzEOUKI7JHuAyBhDa1QldlrL3Wzmqgalr/3ZQG6xpsxH9hgDJ6Ajyj9QCVbRsnmpcT43qgdc/3eazaGF4PuiBFKh9gAoybaFw2O6hrL62Sri6jyGBRrp3sKrVU019AqpFNWtFo4zFdILnaV9QAC2uQD+Bk6xDm99f/acNr1R/synZQskBzDtqiIPqVHGykFBdhV5MNgDTbs4MpP00PdzttJ/nZGC2TTG6ue+TXSyt1MmbCCUCuQEP9N8eeyz28873D1g3JnoYkzSZjwSjXU1b//rMdsgUUMzGe4+B0CEwRedQ05UBxskhg2IglxY34ri7+iOK5eF/fTeo0tP/C1SShZ5zG2srohCq7mmBqQyeFAInHEaH+AQLUt5j6nzfJq2JK+bgllmcsD/ArkneE6JFXQzzOESoawNLDAQGewvwrJa3fh7KmqWuYmyF48DIS9TofcwjWschbv5HTlT0vSDcPuE4wO3gR4UsDOF6Uj4yuXfbHgAvzqlUesibCjcvpEKHHU3R3Bj13+d+kXHI6bUp0tBx3xZTBamlnFA4P7DHSj2kYxv2jWMNTc51SLfFy4c7Ua3CgpSaqLDXVkubw9BPOOU/99z3uYo/Xa4wXhGRa5WygtDpU7P+r4uV6dtctpYsoJHTQKIlLcpOU4OE+L275BX7OuqpQDZpLlPqVv3tLRf0iNWFVWTWs0lfGMNjpY0kbvJZ+Lv/R0J7+LHP5dGE7yPuF+eSBiMbAVhVjwL+SV1L75YjrDSSf5DBFhbb4K18D4qmJEFec6fSgrStf00AJt/gC9CS2bQf1avhisoGiofYm4nrbaZqNroSoLVpQYX7SnJc1w6ECn8YIZ5/Y/HdkaP9gmD5zhBD1yzh4YwUOtEFcX9uC8+dKG2u5P1iO3PmhncDNQ8v7Gq42mO7sVnWk1QzhTxqatN1f0XIyTIWqUvxgThO+A09G5+eRE5Z589BBETBpm2+OVYsruA8flqSdfbGpsLBaKRpJlHj/iCGq5oJ90vdcXSvFYxX+BRrpFkeraVCZIkhIepwNTa1zSfkiTKJRK/unfgL/4CcEoqELGQki2UbsSqNV/U5IuGVRIiv9QBz2JhT19LEXC