"success","timeout","failed_images","failed_audio","failed_video","trial_type","trial_index","time_elapsed","internal_node_id","subject","condition","rt","device_id","stimulus","response","estimated_stimulus_onset"
"true","false","[]","[]","[]","preload","0","62","0.0-0.0","0ubjvl8pbdrk9zq","conditionA","","","","",""
"true","","","","","fullscreen","1","2700","0.0-1.0","0ubjvl8pbdrk9zq","conditionA","1630","","","",""
"","","","","","initialize-microphone","2","3874","0.0-2.0","0ubjvl8pbdrk9zq","conditionA","","a245aeecc0339b94ca3b74e02bb1150e9e1aee21df4e57afe28caa91d36d71b3","","",""
"","","","","","image-button-response","3","5693","0.0-3.0","0ubjvl8pbdrk9zq","conditionA","null","","[]","null",""
"","","","","","image-button-response","4","10204","0.0-4.0","0ubjvl8pbdrk9zq","conditionA","null","","[""images/celebrities/1.png""]","null",""
"","","","","","image-button-response","5","11355","0.0-5.0","0ubjvl8pbdrk9zq","conditionA","1150","","[]","4",""
"","","","","","image-button-response","6","13170","0.0-6.0","0ubjvl8pbdrk9zq","conditionA","null","","[]","null",""
"","","","","","image-button-response","7","14978","0.0-7.0","0ubjvl8pbdrk9zq","conditionA","null","","[]","null",""
"","","","","","image-button-response","8","19491","0.0-8.0","0ubjvl8pbdrk9zq","conditionA","null","","[""images/celebrities/3.png""]","null",""
"","","","","","image-button-response","9","20696","0.0-9.0","0ubjvl8pbdrk9zq","conditionA","1204","","[]","4",""
"","","","","","image-button-response","10","22501","0.0-10.0","0ubjvl8pbdrk9zq","conditionA","null","","[]","null",""
"","","","","","image-button-response","11","24303","0.0-11.0","0ubjvl8pbdrk9zq","conditionA","null","","[]","null",""
"","","","","","image-button-response","12","28806","0.0-12.0","0ubjvl8pbdrk9zq","conditionA","null","","[""images/celebrities/5.png""]","null",""
"","","","","","image-button-response","13","30059","0.0-13.0","0ubjvl8pbdrk9zq","conditionA","1252","","[]","3",""
"","","","","","image-button-response","14","31870","0.0-14.0","0ubjvl8pbdrk9zq","conditionA","null","","[]","null",""
"","","","","","image-button-response","15","33678","0.0-15.0","0ubjvl8pbdrk9zq","conditionA","null","","[]","null",""
"","","","","","image-button-response","16","38181","0.0-16.0","0ubjvl8pbdrk9zq","conditionA","null","","[""images/celebrities/7.png""]","null",""
"","","","","","image-button-response","17","39411","0.0-17.0","0ubjvl8pbdrk9zq","conditionA","1228","","[]","4",""
"","","","","","image-button-response","18","41226","0.0-18.0","0ubjvl8pbdrk9zq","conditionA","null","","[]","null",""
"","","","","","html-audio-response","19","51107","0.0-19.0","0ubjvl8pbdrk9zq","conditionA","888","","
        <p>Please sing the first few seconds of a song and click the button when you are done.</p>","GkXfo59ChoEBQveBAULygQRC84EIQoKEd2VibUKHgQRChYECGFOAZwH/////////FUmpZpkq17GDD0JATYCGQ2hyb21lV0GGQ2hyb21lFlSua7+uvdeBAXPFh1f502/Yq8KDgQKGhkFfT1BVU2Oik09wdXNIZWFkAQEAAIC7AAAAAADhjbWERzuAAJ+BAWJkgSAfQ7Z1Af/////////ngQCjRBqBAACA+4P8M/8Jf+1yoF22L5RziafAaL+QFj3jEo7e2Ki5C2TZyjR0xfu6/uvQNV+xJoCH0H+TzUQPHx+2/bh1kFLijvEPsNxSJLKdvwFgMZ4sgySOjP28tlPsih6dWohgjjkiUv8VkIK3zVot6Sew2ABvPcftV4YjJSg88QkczU1EE9/TTWUuvmBWbX5+S0jMso/VYt3MyGPY455kWnA3M3PrnP2bJVHrQCQJYZ8k4mD3FpgmDBVjthcRhQhYsmKg6OAtvkij4t7GfaRmJt5H/NdrdU1b6Qd3R5VHOQAAAAAAAAACb7j7igT1IyMgLitBjHX0SYbaynxNlFctRn15Wyn85keYmeNxB22G7RlsFSbQh724RUlEJW9mJmXzNQNKR9k2rMKjPs0uRMFbWSuzoiNEbTcXPgxwgPZ9fYADI7uUfHh0zvYMoJHPqahSlBICOCUnZ4qbYhzro3+wpb9Rv2/dJmRlnh8/dURH9z+PjCe5zeSUXdTPPFfBESRGyKrak3OtTyfrsmSrvp2ubyu/2wvs8UGPLd7+HSz9+imKMgcP8A0jJU1qWmHnSFrxeYvdicExmB55ijk2+tOMd9XySxtLbA5k5O3qSlP/AJMK6M5dYCzhqHF2rzzwqvXg9zncDrztxxbJhMI/CqE7F/rsryM9WxVXB2DVLiYej2A0HLBJ2H5bAu5dpr/gja2NpSY8XaOmbdiFj4CToQcptWwp4c4lyIuq3dOjGaNMaoemtv9GuIcBi2NypN+cQopncxFyWl27YtqJAoLHI8ZDAfi9SJQuju6fXhdqKOTFnQmtID26Vko/6RLRYCKA5rLH0M26fuRnsGlhuGT+zpyfjD8O1pwYg8Br6cSft/Rcucm/+hlbEoV83ztD1jwhlViBILZ0bQViiux+ptmV1gt3oDCjCgujrmau32RFp4cKzGGR/CZYJvYm56pxFwUYlXpuTCPn+ON66bxVPILHrpw7pw0pR0E5Bg0irIkrBhvuLboNa+k7N/hGYD3lC+vmAmOMW270owHtc+ucqnwfChxdtRci1jsnAEgYWvXesyy4N+N9z36T0f3yknWhhzULrWY/fs/kEKdRIHCA6735WYtab98mjAVpnyhZ9g6Tu8rlzXdpn89Bq9PuBXcVipGENdTrwLIjS3Ei1VFQwxQfqyuUi7qYELHBa7szbMDfUigc8nXIhFCFc7zLOSs13QRq5eXL6kMxW0PRKAy/BrQvJAzTZidXcyyLl2JFqk5dClSmMmOgc5YaprPeDbGXqXFmkEH0OEkp8oFHcY4Ey7eC9Ys4Do+wDn/h6+QXsoRbWI/8Wb1I45Ef5+v4zwOW0ifW5k+/bnEdGN+lpkxnwO485JExfNnXJLpucryIvgrX0l8tXwHVHwbRMHynmZSq+4ujQ4KBADyA+4P/CvwLYRkC4P0hE2Eu7+MFrRfHP2tnp3QMUPz+vh+GOY+rTjt/kSs7Vz33iWM+uNsJHH0ewZAOZx8wKYZYyYEkr1wmGYDXdub3oSThNBI5krCqq9vPuqJWBn6Njv9dd5PEypmy5MQlokfENIgyhI9gVP748jhAsOJqRQb5jt8b8Um1sbCv1KKb64lY4DwvXA77nsG4fPNRNRy3CKv2SgUxQtPILRvDrfRkciOoRBoRs0u1KfeVDvZe1tpvz46HjwPyqBknCEF448aFDA7abi1DI/qUOj1bqvZ7/59rF8OJMvMS9AG4zYM8LYHrNzAnAu6rRZBGFlPiCU+4kTPg1igIN4Hu4bJsFLISHIG56SttoOYuPctc1M8Y19RcZ2elgGqdDKSospRSiNMPTGAt3UQjTODNxxGrReHy8W7jnPS5mvtLKyiIl0ZGzvp5BQAa8A7DZyVYAZCtRlUKosJdEWVtqskQjRkMTFK1irnMP+kL6Wl6taVL5c1/k5TrepQNaSrFOwgtVcTyVyQTto78Wg1Su1P39LKBAOxvkGeT6Q89AV9Xkgpczfx6GzTeAVPCakRTup8vaIJWfzrd13SI59F8b8YOtTM0KVC/tOtlqs6tJFU5M/bCyxwQxTmmToU47blZBOOx+0Xmrq5IU51FdVJu5Y3tENipKo8hGtphHxZAX5WN6t25S0RHK3KA2Dl8J/+HJ7oAugun8afYgJ9uac0+w2+1orxHgxJaPl0PNN4YiwrMZWyDRA3fNu6V/N1fbSaMdXddJoYDCnAbVOgniODOPEMBYQY1CvqCJaNJQb2PykwoznbGDA5z0IcXno32Lp0faqBNcFFrdjJJQt1LGfgIcSgxmrqFSp/2FOyfK8E5Ur4bxtTBRvWCuvn5BE2xZHdLZKqrf+EQ+OcAGVNUypxXeeRdYhziXc1/J4WDmbsIBRmI8DwAgyclXIO7l/KEF023y8j0Pqtw25Qt67LuQbWBAXYiK7CWvyW+4vLfjZI+YkPX5Gh0eHelmv9dgTgJzTogJOGc+k1VSHu/9H3D/RAVNJu7igPcF2gTlov3IcmdLeav0+2DteKxSZhT4nXqmz030MO2y9cA+sozgIt4HZHp2opQ6/DicTiiCHJubC4bzyFsccZqLlH1uA2E5lc2WjFc8S7LQBH9F4NPqGuanVryGFnBkHD8OsjfDUAXo0PCgQB3gPuD/A/8EWEAMKB5V7+RBzdSkKqd6IJLf7pD4jlUi3hYhjnpIQoEDFN0a3KB9UtM8Jta5M63m3bscEqbb3B1YDEGrjyq0kU2vc0DyaLj5seGdKbrLguKBymsPiUvimKtOXHzhFDcw+ZVm4+riROEV4/U5YCBFpy9ULOOcQje7aYmYVWruGDMLIg1OwFYeifX/nmpUTF2pVEb5QswXkjpc3sX+eExnukGPvj3YFbCdzPC/NTaWCuQur2w3L+rFXRZsgJNktg8hOafFZXFmpVBu5WCFs2wH5P3zc0ZeREqk4N4c4uTSTrV7m/9iaSzlksJH7eKLa3hvoS7wPHJBUzBXZX75VX82TOUx42NRtLuDiDafm80RmY7pvDb6oaPl3XX761TtPFiGxdKodLL6kPsPLV1CBr2DYVlmIx8XzpKU2ENc/S7GSQ0VnE0GhB6B+REn4nj3oFOJ6pAT2/rlQNco0D3GyLzYHo8GT+t98ibOzEQDWDkzO83UWxSlmWlDraMnLlPfECIM4cmfMeyhJT+ROP4/fiSfswEFpEE/PlIsPlph5vOQBhwaOFShkgSPkMzbxBoD7Nmfr6eb2ANon1lRPCJnKE6rnqVy7aPO0tWL9FUMDbVC1uyBJ0dDoEyiq/JnqYmsLN4Q3BEDAwCUD5Wlwtc0SFjNIRJea0g2VdT2pgBTQSMbvnDNJIVbYqiqZVsB2rK4Erfnm6tNqrtzkZG359pYkIh3OePWwp9F+9Rg+UVtqIcYRo8emHqmPbml9+x77JIji5/RCN5Sr1N8fIaG/UYc8gvmAJLjNil5fzGBsmneqSLU3EPdomm1E6ELQ1dRv06U/joCP9EA3LlhErBYD3whaye7zjM8pocG8ruH9ZFbLlG3gKi+LFRxww7AjnpbadyJkdKQLsewk+iDiqwRhttjprWqSvT0E+3hlItIR2fDlHWMQCr4aawJQdz7xEPAqi5L4XBYItnQvm6wgrmrP8VeRKlsWPG49Von5nnkOt7dFcN7oeMmdUX7KYnqO2FZOcGWp0HnyA8jkN7JGupIXTihgFIAAMDO6tckwd75ax/wYIstKyppw+a99bSd8phftBXFk7RdRrd5/MDglsuwLb/lT9OtFqK27c5wVkxvh+UtQCgA1xliX75xphiLvy+k+CjtAXclBTAkRhRNYFb15BTjSwOenGzTIfO+NvDsbz+Xh0Zp+uHe+Umegh3YcGBQMVFBAfCKvPioD1OPsI1ZrzUnF1yOu5nbulILmZIv1sPZRtXyDQbKs75K3QLSYijQ8aBALSA+wNhInqUXe0dPG+FsmzidEC5E1UiNnBpWQGXwjEpX1TH9KwFu7fPIleDLvQwJa045NjJf3JtUcZe+pitYcOJoC448v6Wvquvj8ldvqDWlzaEE8cB+EV+HuqOL9kXdS6QCJPTHjr4UoNRzC0SuODvuj2xOzelJ5vRy11GwtHM4b0QhW13l5puw+azpYxmONYOmSOqpUHvJIVy/R0KWK/tEyOvm/7yAfbMqj6T00+rYCucUEC5DCJfN5WVNImjJPazj3gnWTIPrpG3LX/IJevgpVYe1TGWQGi64sYqurDihOyrobQd4CG307IWIGfdsVPpSutWeSau1E0XsKtvfAltLEfO4gpsaR28SaQoZ2GhZibPRXKNgaGOU8GE3/MLT52jAPyuJqhRC8g/VXgA61Eygcq/FdwsaIQYXZouZsQBTLigdmF9Tc/qFSErRGJoym9gDQDzLJYtuSDq2H+1BzszVKIBMUmJfwHT98BeM+2CnTl+/aeaMtrPMXki2v2/ALdwpv95xxqXrSzAZQyS+Cpk35pDTm2mOKl6dCtli/yqGlKrFgNWYKTdqTJKIu60JKy5UtMAhip5Rdkd/BM6vnm4zOcFLwLXBG8+5o7Dv3qxxv8rmtmvps/NYlQuji0SS7GC3oJHt9gnFJRr2Hgaegj8WXFWwJNfcX5PZQFnkA2hM5+IRzOmQxJReLEva2MdqddFnl5ymTqc6AQFVw3Xe0YFqEK7gWaFzJAumQOKNhIGbMPWA+mWs46gsc3fHsjQ2VO7nmthr609Jxh2FvMFTDViPRtApZ8cgM3HkB3mvAAoRuOLhUw47LI+0r8Xg7Q9a2HaHMf9cdJJyKffFfuLt6TTUum1YQ1cbgZGgM0dcSyMPcyq4VZIW6Eb3zZi2q8U7c70Lndf7qENRle8TLvlEeQ/TTV9hP3nVURH1Jpu+HrEN0G4+eOI3LZTG4Qs3hCc2Dzt/9xhbjvvPjHS2Vs0uc59h/YoJvS9XTuq06LUVtIsXtBDZ/KU6gTxiH6Wzxvmeh/eCgYRC2FSab8Ve8CxZiKy7zyNuUKJ5ow+Eg9O2NzbPEASgYids43zvTxxOcsws+r4Fx+fgAsnH+Anh5imYiKem46EtGIZbPsnu6KjdMHk56aO074kaAzLnI0PmmukKqioPHx5FxshEq/+edMM0/Qi/kQg9xBGfAABJQ1HfBZOmcyCVmVJFitHrFGXlDfQZbNS75ggDY8PUzrXAdvTxDKalbmTO4p6u8CbxB+wPtHktQSueZvCrLBaFB4KK4tpEqTdu4WjQ8aBAO+A+wNgbgzBjLv6bc4OcE0AgPApu7co5xeMLtRNSbtfKudhPdV33UpV2uF+ove9h834OsUg/hDJXPbKfLkBSf/FdDdnJAzVNI2KNlN+pqQjpUVC93nVHtUiqttrNet539IhI2NBDfdReO0fsvjfYeJ5uI9IINKWxgkaXjDdfjZFXKg5ANNbqpnXRzcX60rsFlsYoPocNvA6DgnA+LnmQFoKoBVI9ygafwWm/RG1mMLep9klbBZMyXhTQ71p+fHYSLnG1/DR7MY2F/IZYKd6R950lLGReBmnZqSDAvZRsc9YWD3XcKpSiSRw/SslT1F9s04CfUlzpJ3Mc63Fm/k1fjekK0FKNYyM3RUsml1Ny1epytQDoU2SklBFOjzjShhiMpSXwt3Q/jWOrhU6Hgq2kFbOD3GyPH+Cy/oqxasNWSFInRK4W2As+KvyB1QYL7SFlbvQ+9nB+T5QP1ybH377vLBIGtAsrqEtQCWmO/dMMRDQjcyq6fRFmMknoVY1altvGqsZJFSkZptSvTqUbMJKCKz0v0D9+YvqW5NuyMmD08X3IPZpM2IaJHesQ7nx49skxP8TrnJEGpmEVvGZEtNs+DOH5Tgk64fbBkBtau46FL8WT9Pp3ByIaiuM3UEKQz55slwEq419YkHxjB5X0GDCmAFAj8EUTa5borssHIxwYeNlmjyzcJbE1ZjJc5+qEnuY85/mrMSdWDuxcg/mbXdne0F0b+kAkAJezFdPTHsIe4nCCzv+YVLM/aMjOB4sqSc3UMKv3IwzN49ZJi0qEvtJCQSQCtju2uUoZpl++hEgTNPv7wJLe2/uvpU8wvCmJTCFGx2bOjnNvPC114MaFwZ1eYkkceQPYG7+O+tgA/P7586l+CufOo8eClqNkFXraFWwb6dkI6J2gweKUEo8G61qR6nECjV+uTMd2FniWet4nhLbHOts9xgfyjwunlGkbvcRRFgpWO1evirJ/uBPE9AZiftkkk7P1VW1Ih6sfHtipMVL2rsgYHRr0Jr5Fkr2ido9o49Y1YaPgluro+2ms8cywr35Rj+5Wc1q2XJtiPeKzAiyGWfmDAADd44TKcmPnqs30B4jNyqllXrMFxXHpiW1U0WQOMeSR6IrfJE4U65kFPqePgapagPsAU3+qIMoDQA8vO7t77dueq4p9DWLpwDOkSyhk14dNnaQgJ31316c5cj3P8V/BlNd5UBL6/WEOykytmjTnsU1xmbilDg0bpm3drQHD9YtHgp5o5OyAZnbsQ3VLfRpYR3Ur0S3HlKdLoFh5RUyJXajQ8aBASyA+wNgbwKvvy3rHTqRK5+N2CiuNUCUI2gSy9Po8LapD3BV5uzOaIEYp0PWOBfDLek6LTfUwnNlAAfgBSBDKNy0qL9E4xe9w80y9TsR9RQJpej+fekHhS6+d05ZVW9gbr9XZrpEJLtBop5m+TTxNJ8dG1Ab83D/NaV1UYps6PlniOTsGgaswTV9chW7I79XcooBhjhn2Pvc+vpYDC6btq0OSsoX7IgHRbYF+YAw9rucq+OJb9OedDM5rPWkgxUMYLmLeD14SP6QVJ8tTNEcXWfr6Hk7o0vzLyif5K8APjjwOQ0cNoeXecUwAZs1LOCHPys7h6Pa3eTXaVYZbNKkZNKfYIFT9zsdQzpv1EZRsFcFLkMFcpeI86NDqUVOptq9LCSV1StirPRjsPk1BtE8uVO5j+HDY+lxhOZw5Io/ov7GkvNFZGA1CmFYREltdJyFDWdvab3q775lYwH6BRe5o5P5tYilLSWyUHaxVcyWDriR83AcDeT0fly6pZqEYCaUGSD94AXmBvZ9EvVhJrWo0yOlXbpQOd6XAxw9XnvutXeDohhS94A0rfDXjKnWoKeD0TdzvV/KpSOL3iNOlOu/yguUnm+2Ai1+SI4GasK8a2fCkKIKJiGPrZ5ZeFW4hjfCOZf9SayCsUXatylXPMO2Hx97GhRhROYLgDDRZbrBJyodAvxisvr3mgU1yafHb9RFyXNeXVR246flUAoRKie4rcqPuuAi9RgtJdqGT6aaTp5PkxBNlT3Z8yOrqCorxopfq7pviKJ76T+jvL09XvrlB37JBKn2d4PAnmvc3lnDf8r8TIX1mus+UbmSSRkj3IHY/J9XzZJUjTHRPEb+GwubPanxEiAKYDCuOMjzK0aUzp9LZOLxumPlJTuU6NL+T4s0113OGnAaOrjPuNJDaJ2lzXYlFCobZg+J1qZLyV3A3DolpB75zi83dY6dNlfxJNkc50iVbch567eQM2zKRmEgBc6QXUOfes/9KJZxfeLAePVtV4Wq/eW3DfkNMYenNvOtM2ekgLiGTCYYkzUGimgLkNlh+NeLS+ZB8nxmSzqqecIEwDlgkriqbg64UZPCok5df2hlBc4s249t9AZ7smuCveLHF867qPSooNv7WHJeBTIZl849LkgOOb6m8QubEUyNKFs5VPmNatKUr2rC4ePFmf7Lo0Sk9/cKtgtkHEQoAplxuPDEbees/8YCO+mhD9jfNccMSf9SK5pM0BCyEuNTOh61GSbJWuWbHaqJv0qPaj+/pro5Q/Vov7SEDaEsP71/rMYED9GjQ8aBAWeA+wNgas3B3CTKc07Nu2kWm+b1vNN91gTZg597zLUTs26i/NiEDaoDntKfwZKZNeXuwXtEVjtuHvfoWiFj33UDf2e5kxFcjJTGWJbeiEca9n2q7lya9MJNgy+0CDDm4Dux6964jjY1uANCIVMCL6X0Dap+gA1XNFenriT1TyrtyzCMRXaTqUieNp1ift4apafUmSxA/KihAbc5P2WsQXi9CbENXjRy7DytaKzgR0+3PQeQJ2eVRYuZzHwxQSEUBH+Jon7IY8f/6CrfRpQ1XYU68axk3ubbj1b8j7rtxzBxyH/uRc81WVJpMDKewR78/hYRXAGQPO050+g5YY7bN/MQBI2n/JqWt+vnK4jBdaDSqqLGr92Ov/PWdC1Aj53s6JrWuPpFBhb6+87+bPC99Kpy3DBElKYxdTPrQgj9SUGTMgBHMWAuTE/LWOwLrVMcHzvLRC2BA2LNpoQlDANAk+IQdx/5dlYvVAt+6pqmWbJJv+48GglSB1wKa36hJ7PaCPxanbAk71ycWXwSDr0/EOPuuTMqZ3YKj6c06N7VXX9xeXOzuSaD6AZpvo5kqo6fmXGn1udsFAfO3zmUcU0zis+urJh2fJxlv6OzdfHBaMElOmINMAc7BfaNJ0VQgW7WsB6ZROuMia7EdLKPDn5lzAcbsmZC7p8DkuWLtH8bd5eym5gnY2f28T0Mv5HVk+kWN6lC8xPozcIrpxnkcdCSCkYKRLrGjVsvW3hR5VeGYRGdyM8TMLVThUOkmC6vKWVPme0yRvpk3kEcPyk/GcSWGowGak9GdnlQ8LJVPT9FWq1pYruByXFd4KVOg1S2/3YwbDw2WJx204AE4AHlqj54XU+hxOg9YDUfeJvc2l1gMhBkR/gvzG2JaR+/D6TM+LZmXjbtswS5JVf0AncBb3LIslPIMZe5VHOD/kAzUbE+IPvWlHzcig5PKoKxS1qZrN6aWjrFAfz3VUCannLmQBEszVMszwsjU9wQXbyaTOmakiCEFKcCVhZf4Py/i7+yKlcRR5oxmXZs1rGs8WfMzfM535/bfMK5NgKJO+H8Zzz+zuG8HIjzhiqQpyTxxdCHO117EAX36QWkuL56oVBVCAVwzdKaTNdYHsM1MrIyKt/41IaMJIR4sUwNjHYTWoc02Lznu+6xx30AzBaPo80l6efEgI8pHp2dH9jN2ZPhKKO2r7HjYevTc4AfSdUJBP9ubRLf40i/vEvGrLVwQ6dUHifa79OH5g9rpYuzGHwT5G3dptALDebxuydYwg3wMnudSJgfDOuBxoCjQ8aBAaSA+wNgaxaVFA6q5RlsUyCdpvITSOsLaD94cApx+t5i+SE3C2G77ntvP3QGGmmFuoQYN6/O0WtJDTjB4RDMEcEDS4LnyrsbzusROx2tMC3ILnx4c3EfRs4cefOxlxA+sAO95HGu5YCdTwmAfSvphHsXkCB0ekJ9T7J+womhqVtMNQmTWU+7rOQsUiFcTkrpOZTxSEMlgcdIR4jSSVlDE4qFeU0xWb9oy8PuOkdXWWTpj7d+YG6sgOyBFGsVgCnCdusa++93mlrAdXWV2yMrbZD776OzXKPbOoNLEhro+2eINTlS90Vr4QTQyRwX1y0Ici2ko3L9CUSccBZ6feXHZ3/x/GAnxSqEttt3eMkQYDvrYV3UQU+p2RkXYHOfgnE+81GIRTWQFkmzWCvNDKQrVj9HckciGEovYJiLqxkJbEDv/zW5YGBrLIqZ7vUwt8KstlCFuwCR4EpcqXX/0WbozUNXocCzN9Q/snScqMEoJrcqKzrrWpYku5xtDqmMb/I+0Oc1GioBgbayA8yeVmkVvHLzBayjX4tTMWU3r8Y+ESQeiF5RXGU4ZzT5o12PGH5atbh1qUHlfcCnOf/rovet6qbddXm35leblynQPzv83bNkVZpU0Xavxk27KnT9vpJ4c+q7AZxs7M8JWQs36q8ZzvBYk/BodZu0qKjxqrzd1OeQ1NXdbM8r+Osr3mWctm59FJPeGk0nvFqphZBtN8FhFxSOWPTV8b27nBl+Ycjf8lTD131oxb2c78dHaXekdl8NZHSLBr+XowvJIZ7n0Y2kbBAoFMM3lXhY/59CrDY4JQcTqwH/cPRt50swTM87o1rnFJQlEHnKB3H91MDiHR648WOVTrmkYTX2UQms07JAljxKfu4Cax2yLbwPMJtjNGnfddyeFCCW0lafLgT6NDsC35I81JxS7oKATWEBHAJW5AfHHJbkRmhtBsnwxOETR7YRK/wFCj0CZ61LqAthOZzG5vcaxEXufKBpcQL/6jMaPBTcpFkVF32Uzm9Xnp4MWe9tsLIBGPxl8z3WyiJmqbQHjn9ezT2niOAZU4p87dmnexUSIFEpUg3j0qm56si+6eAYQp7zTMi06i4LZdQfoGq//VmpzNEjqV5QF9LC3tzHPsD1gx8EWeQ/z+J6TmtQ9tRqCH/aBBwl7/AUrBNUQP10jVNpxWboMp2UG0MATTxb90CUpodCaaKYPL+mzxI1ZL7X6M7KwjEfSqXWvMiTp+HVaEN2JtHtamAitHNsNPY08JOr/mqit5E92pZ+A+UnLqV11uEuTTKjQ8aBAd+A+wNgL/08aPbYqvMDFTa+Dbdt35feJoswXm/C3HfYRpRgn4svoQ9u8WbyRMtjCblqYY7HD9/cktm8BwZNcy6vIu5YGYrVPE4jbzr/pPzQn7QBtZ66c/1Ds+JVgEDX1PvKZkEJ7nRaIHuI1VsgY2aNlfO4eXELDo4sSNEft4f6oI1Ch1zFWenYbJFtWSxv41RPOH9dXOOMz2q8RE4xaq+bSP/wFsGZfiVPXWOtDNcnv39JS6MRjHNaoUmL9+2UzTth7FAp+ZYEKW6z57ZG211zF8ONu01/15q7ZhFoDpTPKH8rdm6DDutL5CmLkcdKbnPnt16T7QiVq0Ojwpi5JgiB5w9MukpTxS5dohMJRkMme4zPvLu91Bo/cSiwhLRDv0o1Iqy3aX0JYul75dWlBjx7MJplvPy5oKXlaw0KdsMctxUyEWBB7XwL+pU7cg5X+YkmF9wQKDhaqXJ1QBlXk+D02e2tCMISisU/PsQpDX7HYjIQafMQ86pMH/3lz2bxYVWwo/bgpXHm2ysn/5mUxaXPHwV9fMyrD6hx/T2rq+De+2drJpIVy+Bg2sYFsABtMk/zE0cl5AfnzIXldX3kZivf1Eyaqjv4rQOn5E8oqCQB1sn6uaWyQklf+7U1gCa9G5769IkfjCiqBLReBPHE2GtnTe1Jbz9k/axpvKVaTPXnkazRyw5MIsWtL+4usgxNX+8N9FKIDuFsbTDwKF6+lIRufENEQijNnvrhliRUkKN9t9m92LO1Z3rRi81mvYWU5Ilr2/mmVVhxQmXNw43tG7ubPbuR9wWZmMPqCP+HNEfflL4ohoCLgMUD7nf1qRmeTL+QLVDt6LIx8VHWrC6leTFH0PYIYSz3339qUmflspnVSzvMe6Uhfzv2Xg2kLPDMgjx3vxApq7zGaNBfbp0aL2bgc+4ST8qxgWDKrNtaIC8VzfT2S6l69vmvZ1etLTP+eXd9K2a2KJQRU/+KDV7ZSEm3PyNIvhR4Z32h4ojbZV2l5gIZWvtSMWBPdzuMiAD0AgXwo/sDLZ6JzubXFJP2TB9Dgc1WYlCA2LvdmIdrSTJqhXwuNr+MLwVvnEq4oqK+6zBUH4157VuZbU9XhfMBdB/QIV5QKbnMuEqxRocvYIEB89t7uC8n+pcBH/zIpJuPLDSaJdDUP6cysidBGnVj+sErJTMemM0aHtt98BD+qgnmkZydjKZgSG8TVKEr2UFTAh63ALIjooxrbN9wRX5lpjPj7N8v3Vbw8kkac+kIyG+IzlPaM+kcFTu7enUcCzoW3dpvBs+jQ8aBAhyA+wNgNY0sgxsyVE+mZqRjrSgAbXj7dYvP9JNvUsztsycxD3XAPgzxorMBqI1nbUAHvepxa5uRlpjJmQCLz6Gwf+Ugeov+CU89wfJXPNhKLalcS3xOJ0e2Jzc3t/FEW7JnfaukUmNQ6hOGFADHIAGMqaEFA7YEyLkx7Vh41MjJd8iPMENJoXZ+U4ass4EWXngrNbRb1jC183bKC9jWXhspEQGz7aIGbpU90ysgBtObG3R9uPAqJTSJPlW3b8QxKdANf0tJb0YQA/Lzf7h/tGlJGAszhjCY1MTFh1p1kKJYLnBWUrY7/VWHMt5GDSN9Si9Ipwq5G5aUIQmIpK14e4VrwRCTdIWdUm3P00s8imNZdx/in4XuH8jlta7IDxaZGUIvyszEorueBL/hT5X02CPDp0wN+9Yw3PheupseTUQPL0eAC2A2grWAz4f8Zeo0yNj0VeCrDkQXq5GFk5Pbk7rFN2Y8tMR2a46BM/jU1rU7/cnrQUJKH8n2HE/tnpy+4SfeQp5wG1yfUEJ+kQ74sYlhFvRkjz1dRcvZx+MbZtd6x3pBBumaos5G2eg2iTAkFOGrLaMOjlxfAdU6zaf9gGmy4U48H9Vskf1Tt4QPnrRpDuJMUrgt21jLAB+IsE9agYGUORo4N2FsevwX24upZbh1QkGkl1XJfTLJuxH+Q1Dw7GcdBOVKTQwVzmOQnKfPyo33Ef67yLFoghmq4EbOVQNF/SdxNu6Rqru8lSTkgWT9c+YbEAwAeKHag4E8rGXurmMd8HwER5PASiAr38alr+Ektae6POW3WW2r0UkF7Kx5zZtip11mmmJy+M26Bek8H8ICYTyJzp8ljDExLCnW3ai/T8JXYG3K72yuLmb8K4nA2XILTaHlIpn5PqCsTGYSkpr3HCXcO8w3/sY9s4vI7YbbA4GWiLp32j1Qe4L/EUDrSr2AJBjZaSv6fZavtZ3IWvLDaJLyzLwa7fJtk3NctOwcypRw5S0Z2ZABkibvbsP17JZUYVzLIa/uJB6Byc6FXweRPDC18+UKAepTljJh8d5HSebqQKemD/M03iAUjH4iwXVzjI8LYEMZOApb53fK2xHdqre5NwHI9kgRI/icd/r6QRj1IsFBgF+is5beV8AtX4YkuP9GsdXlsgrAsT9uOdfrAKI1OJGOyWRV9FazERtlEb2O+91MdPeh/moNgkB71i70UT0Bc7ffk5N6yjKR2q0nZNhyXcfpX7Y2Rr/GqIf/dwugsLa7xCzZR3e/Dl1TgYDAWR8TiZozuNUbG3OdJl+uGnmjQ8aBAleA+wNhIGoIXNO9GDQoABNt7gyC2e+qSQPvCuFDuuudg/ge/ISzn43AOkT44ouANQVn9hat0wBkasMR6Rep5Iu58oTPwMIlIyqAR1Dnou4+d50+1DMnOz6L4OSKVFLC4SwoxGuNnyCzSwV6JJrSTT3HeCSIff3SgeUBwq+FvQURfYnHoHSRgpZ9hmq+R54RpTnLi+dxd5isq4cvqrZPidffGGYbfStHITLXSXbRuY6ezWEPTYbvcVM6z+KomOdQwZkgUN5d35qN1yf/3EsJj78jZFTUfSO/V0PoEllh4w2zDLT4VqwDGjn9d31maAMgewKY87g8Ib/Dz6K/TMqocbl6YkV68MhetWBMH2E7Q31QTDp482YZV2gTPGfxGlh6bqeXZG3O0ONLZKLGnUDZhYYXyE7paDtqS1pguBwZdBWPpF005WECW0ksZUQ+p4SJBMIwldxezCMtXkGqKvVfS5pUumG19mgsyn6M2FQIDaAtyuw84J1betCC2kdSh3hc2kd4qAOy4K0Ftq7zJJgFOfwUK2naw8MjznM4ru9qf+BZJwxWlMvqwYAQBiauE5SmWi7f0tdvkk/I++Lp7acFrB454r4j6VD21pMphNAb2Igs1GsvYI3x9vl6MtNJHjsFk0OMZKYaVaHOC5aslP2d5rtqubc6zxG80Eo/WsTdNLuA8tXDR8ptfJ0C6o3Q0Ymf16LZSxh4NEWnDGBx2GmaTGMxXMKlbU1vLsha/8l4KKrvQ5nhOgF4gM7LcM+fYoI3a4MxSCh3QNBt//3HGYj9cC5k3aWivZK+CjKr6ktsMfsBtcd/3j+sD3nqqTnx3LosRaaZ2XdkIHH+fl2sqx+J6w/223BRYC/9J8rNtD9tdG1OPDPHxDH0zyowTlp1GL6LE2IpFG2bOA79eDnWCG0vGu2zKDsAeL6BdNA8+qKcxdR0uojzgGBs3vsu36boxd1DOFyDdTgFQSXpUCQAW79Wz4j0QvtBLr7yTE7aeYeMYtHv27UKsOYgRdrOLuzwusq/we3X52GploMCL1oJsypVjJcrTiv3/AKKjC4fYa90F9m1X03XB/mV4fnF7xnjYk7sqR2RjdvHZ+yPUvWVnbs4HCLvdoWJZJ+9yje89ekHTwJPmSJXwSNt5to4we1EXnvAK9SrAqdE+KNKQK2Ea7xoWI8AUWoTpoyhdH6/dhua0cdHRLmbdaJ+ERHWeM72rm1bBvCGk0lTVn0b1RV5DnNBiQtPdz4HNrVGzba3ImFgi7mueUku5/tc15EQOOebC4fBTyAdlGujQ8aBApOA+wNgL9gKqoJaOcrp4RQIpf4WVjIiLzVmB2BJ0ptQSVapzBj2JK4RUIMgJc9VpVfQZm7gZ/AKy8Al6GAUij7iCU0ndfjafLzl+pJAfXg0ZFmgc4cB9fzzuU18zHZzDF/6/jIdDiAUzIPUtzwNScuuZwD6M4fn4wHVDlIxdUblYbJj97N7M0oygv3lgTZWXMp8BE6wr+EWOo/WtMuVcwQZIIhd4QM4LE2lxW0i81kQ/elM/HFZy9irzv2Mlm8vJkuTXzTfm9BunGLBgLftMnme6pPgZtHVOrpNlRYtBynniDgHUanQdn4szDtF4Rg/EsWU80qVvvQagjyhTwT1W/zrmRiUKF93/LAbILRcHHOLCOMEL1tKTHewlkcWw73/hPQOueNhS838686ZakLYeMcI18B1JY6PWtMQhJxcuB3Rm8Wm8mEx9HRf1xznvlSjkDpcgdEnO0JOrWZ4iwNF3orsZkwJ4a4KFDmnPpzrMteMkWa5P5zrw/Kq27VX0GXf6J0at/ejtrK8AbM7hgM90PE43o7enEUMTB1gDM0+KXWwmlaONAZ4T0K1SHZudaEIEHKOplJOOjw7pMqpQprX8l00va1KNuKSGW/ATQQKrBawtiZKd8yQqLbkOCSqCfiyhkNul7PWsMNtaRESHEKMiVzjx2OarIrUwwbpsnWWPgxtjO7WZ+z++isFgaaaRiVG2jB5miE2Mvp3ceXflRo+lGA6f7BgWo+o1fD+cRa3XWKT9j1GVwvtxJGzYy+LFGeOye+tl807XwlhfDF68RWotpls7IH5SJ7IrkQJTrvKaXgr0z/mm/GqwjJiQSVp79EoiFvf6E+kKpoE4VgNiP2HfGmUDfPMYD49n/3trAq4hy1T3nVmFxjcAtK0wih0wwfpI/2Kou6drlABSX6Fz2I/TjDTx7RlVbEtzVJDqoPvv6bi3CS5rFr+qWcQFGncu4+slFPRRR0zE602ZZNn8/zIThdAqh8iBFCeAfcvpa/RtX3FkA9eq0M0ltDjLxhGP5kDdwimDLZfYIenXi5kosDTIcxe175WNrlt7vzCeaCYPhPDflEiNhC9zpHXOfSjrLZuoyl+ab5iReMiM1OUhC2IRhyoxFk+/MoP82X8NMaM4f2IBhLyvKgX3F043B/U+YDZjxuXCVrMVmoy6Q41h+Bi9SxqNwUVRQmYPkPTXjbhJsaAIVflmIHtvgSmvZ5h/JLBnjkDQiMgoZS+iF989G1BecCXGJlG8yEACGUz9sjSFm9emkWDdu75vKpbrVOn/XLBqYhVLeCjQ8aBAs+A+wNhB4CutzbjrAe+NcSqhpOFYnI8rc3++BkJ0ZevJBvvqAPqNiUvxUDF1uMOkkYLBQuEAOJxsbmMrngXbGNeOMUwBtn3kAqsOAupIMyYHtA4vByXdpkHGoeZkCr+fTsiAp/mXvPmH/vxSzoL7Q/gs8SjixTeHa50xTGVMij3dh/XUV/xHmB0dZYvtFl/hhD5U14yyV+BTuypeBh9MQ59zse4nwRx8mEjAV/yudZ9L91D9oEHoYck+bts802Jv7pxjJHpYyJgs8hqJXJvq4J/vp7VOGG6cSQ24FjyjfM38PkB9d5aPU8BEwG3cEVGMEA6vE2C/x2I9zs6Nz3DtW3Di14Q6UTBPZuFn245Ke7o2KkxFO1kQi0cJygOWDct67+Gm0+pEbEULGG4KMLJniuoZDxQvAxZw5ezV6k9t4cFqjhQjWEA89bXfM5BekCvsf2yy7LmH+dIdrvwr3eQqxfJr1nuYjMGfW9jrZizxzLO9kPI7gCBohsK2pc21Wsp39gerSt5xz1onBhPnLH8oJC2T0e73A+f29wxXgbZN1VEg3kxDEzv+BXQqEa8wTi1sf8VXTFFu5RFV2XEf5Sn8KOpJlADEvmcCZKujfRntMxpQNiFoQz1rI4pNh0YsjZJntdKJxxxLQ9JT6PYnigQ8PYJWEFsZ8X5/5k6QTufQI2va7IkaSp8jXscJ83UOLBmdqNo+5zsd62AFUy3rxf7SwB/b8rTX6q+XWtC6X3AtWCXNT6aAcR99R0rYjU9Q6QxOY5RdbejuXZzuHTAwe/3IdRQLZ7UGiP2IQ9Xr92Op4d5jZqIq+AGkkCpKI1wEcAieorZj0jeFPrPZxoXCs12Hh24a1QJYGsVWG61Q7K+Ymv5/71ezwbHXiRwjjvmaE057FjbfGwu8YoGA5Kz06ioW+AyQJwSFQbfmGj/hy+5z6Ijia27JtfcPMMZ+Mr0dyzetHRm3QsCeEKgNOTiFaNUe2cIIil/2bXznWZ2Ef1PCzYVHho7vkfQk5bgcLqAMHVzgV8RopiC0O7ODu9jE9RcGHD5WiM9fpkJDvu+aP5ekxsP1dgiyvSAN2AoawfbXZLK1oO5fEG8DlPv/0GLzO5UJ1AFrHpd71NP+hO77GV6CA9+b8/Ht+fNzSSKj8Kuj3ozWZ8blfulSJPjC/2xQVq12JY/bDU6HxNno9i2cpklBXHE6d5211fcod7cvrO+FuOHG+5mKBvVmX9mlMEVXmmHOAsxAqqhyR9cN2tQkJzn7yUtwe7OAMsxe3GTQ/IbGYw5VONhC1KjQ8aBAwyA+wNgbrF1Zb9OBvc34X14Pb3+hPlpJHidc4N2+s9yRJkJSDycDYkJsMroavIaL9r4/2v6urVJE8cIVP0xZVOdBcxh5XYbfq3hdjd2qlQc+Fi4/FCaE+KcTOGnoUXTb7HLxV8hiYxcaUtP8qCLl6GqrXOHR0p8CdmKB07l8vTWUw1T0ymfHYap/4y4P9RJCE4IilS2Rf1ig0t76WelYki/o9IVaMPuRRKHN1PIUBRhBv1A/kLEUmkyQYuc/gvIfjd+ie77roS+KrRSnbVwGshZFdsfM2O1cEE2U4uj4qZMbcg1Vc+xXavhOgDPw6NG72YjtvuypLeE5RBKm8HEBucT1c57Bc639AUEvvg1S+2j0jjpXOQHAjgYNObrmjQaC8S+NUQx9GcW2QwrN1ST0oYdFnMOg5/I5x6vez6Quz1fJP82umEClOqXO3/jTT+6ekhenwMaxaGmZ4JJ+s8ZMERnlkUvfLbLxr2brXG3cuJb4kz5qEIwAC4yaWafTHWrlSgby1QdiWwtdJyBEnGhVECd+liFOxcYlza/yUIOkvjlR/1HWF8D4sZNpu3y8XgRD3QdWm+z7YUAF955tlBBeBlqI2QZiFEeruIsKNVFWot9B3JvHrTD6SvNYib4cKZGiQ950pYNLZuBuqt1n7LFi2XMI0SMWk9AOhIlUmF7ZpzGZX7rmirViU8iUUQOORlqw4cyJ54nb3TZnRFS3bfDFLjNAGRF0AqZWQGMyIz13Pm3sRmZ9fd28cDxrTw0T+T1su5UYy5V71c5e/UhlrauT3f/3Cli4j5BEeFnsJ9+d3f4tCV4mW63HLK0oYrd9u85mf4Li63rsj8jDsVRmQ1oDepBmyjIYQ4DiUv183zQ3J6V/KH0pwq1xz2MAKcgvJ+HqiMy0+bAQPmPsDobL2SY7/kTd8yZr4n/XcvZz7/m+sjDeA326QNB+lRdrlhHcWyyU5dZNLXYyrdaXTluy7MM+ODsu1qQ/jfh1WXi61TkfxlUduew4+/JL3I8S7GV5e4Fg7dkzij261NrnpN00gMYeKvdD3yC+V7EKaCuGjM1Lbabqe27pgkSIdyneHVlvadQMO66tOE63C/dVTrdSYVcueHBT5YHMjDDfbWikfX6rqc/yIyWx013Y+iQr8/lkZTv7QgliGUW1MH6C+4Bkb4wFlQ3bDgC34br3bzw7Jy/Cw9bRQ1NHkuN4lkf7qTp4Gpn4Qd32Op19VuSOnwk/DSm1iSbFVlqX2ykZ7vjJJtV4DeVVhv/VkxCvODNH02fDoh62kWTGV+jQ8aBA0iA+wNgLOdxwnBAo4XdyotfgiA+rplqrdOYZyUXauHsf3RSL0RDsqvOoeTE4EMZZPwYf7Q/cYK/GTjQHLOUlXUmf41/96FPIIO5crA74aV9RbNOXVj8MlTT6SBf7Qx2FJ1Pike1Wy2KNGQWY4JFNDAlpv7L0AID57W9aOoAGpuozkPcrobWZX10lGw1MI6N/Cwh4xHa6skGgzL6SmzlykR94qlXyPt6hNCriQuh3t37Awtg+y2KxTuzk38IN+P/a89OgHi1ObAO7Ch7zyTvbrqQ0PFLtIKwinl3GVVTphkbYcERkypJNrYx0+fTPz6w0xeAQDOmdkhXb2JBl2gVJIxcPR1TmkDZbJLSQFMya2bZa7ej4DBKLnkhCQ+jGs8j9fSz5SKvIkGRi7hsnSfuT2qGWKqSHHD2gcg3yZkKgduoTJc7cmBtlseT1ScuyqkNy76Tl+Tju3ncADUYPjnNoq7uOgK/wNlXDnvOpV65jYMk8IC7G+PY5sBkbrpqtLZByyEPIYBKA8+wPiOVSkgw9S7srFUPPq1FcFmjgb311QotuSKjFRM0cSFpEjSVnL+el8ogQxNcmGql0Bc0RiD13lP2LEHLYpuSVv4TGsm9vc9zSRa5R0CkUI1ZHpzUh3uG09fIHp5fj2UhZPhpH7yYBC6kbeeHXcElxGsxEhc2/TbqUzsl4DEgtdLAWEsKBVQx0VlCIAo+peYjDvsc1IBS7nR59/8+j5ildaM4g3gxVyqD3XQkxR+QPapyxD8LCCZOLoWuBAEvGGB7cveW2/64qTpDZCDkaStsbORQxwtR+KCbxGMXb0NP/0BbLdQte4IjQQFGvYS1+SbC5r6KHDtaH7tc7zY9YRtzdq452vwpJoa/hBXrsJ7M9AtCtGzeZPsKJ490FdcH4wy/iiL9BIUl00PTSd7OrNqwooZy3ulZQ5FKvrG5f9UA7JPeiqbSm3yhLVpBzRACgtQ6FGULlaDC2p9uwsWp4mvJzHYvdJdg6CVHD8BN9Qh8L+MERWa6agXMGkoHHgXyOqyHvnT5nXpDaDiE8U/ajWekMta2SWhFPVaLuORqcoq4AzT5hXdhXvWhWzbIFjSFrVdxPl1dUKtcLD5TEljPgM2XnGQZYpf8C95nQn/xt+A6keIBEkhI2rTu9/80eAxved+fOLyb8cO/N85RrDR8g8AMjNjhlJLALY5K6edZ3EA5L4st2jcxkmlU2ISwm/DApcgoooJJfwNeVvlhUulhflCxjwe80qeELYbPTK4eydYTLNTWkMQZHIZhFS7T6y8=","1"
"","","","","","survey-text","20","57123","0.0-20.0","0ubjvl8pbdrk9zq","conditionA","6009","","","{""Q0"":""""}",""
