"success","timeout","failed_images","failed_audio","failed_video","trial_type","trial_index","time_elapsed","internal_node_id","subject","condition","rt","device_id","stimulus","response","estimated_stimulus_onset","audio_url"
"true","false","[]","[]","[]","preload","0","31","0.0-0.0","st9bnekd8jlb58f","conditionC","","","","","",""
"true","","","","","fullscreen","1","3116","0.0-1.0","st9bnekd8jlb58f","conditionC","2075","","","","",""
"","","","","","initialize-microphone","2","8919","0.0-2.0","st9bnekd8jlb58f","conditionC","","30dd22ab2b37206c966e6cc1697da94970f6bc28a96247bad18d1b2142137ac5","","","",""
"","","","","","image-button-response","3","10729","0.0-3.0","st9bnekd8jlb58f","conditionC","null","","[]","null","",""
"","","","","","image-button-response","4","15240","0.0-4.0","st9bnekd8jlb58f","conditionC","null","","[""images/celebrities/1.png""]","null","",""
"","","","","","image-button-response","5","15978","0.0-5.0","st9bnekd8jlb58f","conditionC","737","","[]","4","",""
"","","","","","image-button-response","6","17785","0.0-6.0","st9bnekd8jlb58f","conditionC","null","","[]","null","",""
"","","","","","image-button-response","7","19586","0.0-7.0","st9bnekd8jlb58f","conditionC","null","","[]","null","",""
"","","","","","image-button-response","8","24102","0.0-8.0","st9bnekd8jlb58f","conditionC","null","","[""images/celebrities/3.png""]","null","",""
"","","","","","image-button-response","9","26810","0.0-9.0","st9bnekd8jlb58f","conditionC","null","","[]","null","",""
"","","","","","image-button-response","10","28882","0.0-10.0","st9bnekd8jlb58f","conditionC","null","","[]","null","",""
"","","","","","image-button-response","11","30891","0.0-11.0","st9bnekd8jlb58f","conditionC","null","","[]","null","",""
"","","","","","image-button-response","12","35882","0.0-12.0","st9bnekd8jlb58f","conditionC","null","","[""images/celebrities/5.png""]","null","",""
"","","","","","image-button-response","13","38889","0.0-13.0","st9bnekd8jlb58f","conditionC","null","","[]","null","",""
"","","","","","image-button-response","14","40889","0.0-14.0","st9bnekd8jlb58f","conditionC","null","","[]","null","",""
"","","","","","image-button-response","15","42879","0.0-15.0","st9bnekd8jlb58f","conditionC","null","","[]","null","",""
"","","","","","image-button-response","16","47386","0.0-16.0","st9bnekd8jlb58f","conditionC","null","","[""images/celebrities/7.png""]","null","",""
"","","","","","image-button-response","17","49130","0.0-17.0","st9bnekd8jlb58f","conditionC","1743","","[]","2","",""
"","","","","","image-button-response","18","50944","0.0-18.0","st9bnekd8jlb58f","conditionC","null","","[]","null","",""
"","","","","","html-audio-response","19","63482","0.0-19.0","st9bnekd8jlb58f","conditionC","1172","","
        <p>Please sing the first few seconds of a song and click the button when you are done.</p>","GkXfo59ChoEBQveBAULygQRC84EIQoKEd2VibUKHgQRChYECGFOAZwH/////////FUmpZpkq17GDD0JATYCGQ2hyb21lV0GGQ2hyb21lFlSua7+uvdeBAXPFhxflPIf+vo+DgQKGhkFfT1BVU2Oik09wdXNIZWFkAQEAAIC7AAAAAADhjbWERzuAAJ+BAWJkgSAfQ7Z1Af/////////ngQCjRBOBAACA+4P9MfwKeWAKoOIB4JO1CEHBybS2ICpQJp2QfTW5MRnwbX4lBnmML2OYPxX/Ww9sH14I8hTKfjDKsroCq/ivlP2RZhw+gOwu7etHoLF+i6ZHSFDqRGz3f5pYH6aCTfz1PRc2n2+1jWrTerK0Fc9GOCJgwuwSqHtHu89VKDTlvvALhiuW4nnQttAnvPRN8chB1vKf/u4COeaGlWllSn2wiOMBr4u2LGqffN4hOUNLQ3IGdbA7EJqk9vc/EJdDXxop7olcMP/Y8gYD1zWZJDY78AAAAAAAAAAAAAD3GIYrfvHWjatZ+tMCbEHFXFcAQz3Cw2bVVU1y0Ul/dNCwFlcPAjsCZgFxW892GIv4LsFdDbOX1lPB4DlJbUI0r5cMGUq7IqNW8Jo9TUsEdE94GEYrRFYLPP3GeFu+baPuwAbicl+oA7lbvThrULXaSSmRqH3B/wUiJdzm6zayCbErobG7YpqEc67A+1gzN95xwxQ88gBc/HkCBZ3wmEIMdOCV3DtGVXnvzt3+lOtkgTKpcrBNlKt8LZY01XWwP35AR2n1WF35/58U572aYEjMzte8JSVpX8l8PmJPucx83p998yLYOgB5u4/rEaBTEIjWVa/sKT+VsM6rxtJg01dYQh+oHrhlmp/MHcFXp9T9xsoTypZGuCg9/PJ6W4DsmtD3cr4C2g9cdiF8Eqjrcc/mV13zdDci/7xJsAKvf6gE/ZGwj0eifv81cLRphDkeN1dhMvWgFAW9WO+KLjwxnqJQpmJhzWnMmN3kEpCgsgW2aJURmO2ZBgvwiNdSUKEjsSBva7OHk582LFOAFTWz66nqfqKr9TlMtavDPjcTRN0hDepqpcYP4OS7Bh1K+rRwAQL3hJKqrJbBPMPSgYBOkDp1lLHMotBLXxrMKvswBH1h4C2nZUtC7YaN0h6PKYhn9OQWowSsD/cvrzGypsZHlyyxF7mlImEUHrfZWkZE9GJBMdGtEm+5zsX313QZd3oP2f1GEP7oofYMfxYpGKBReZdF5s7R5g0iUJPFaarp5ZSPql1OavWTsx7G0hPsoAsEpQRpp+C9XI6dJNWPpTHd1J3SLMil5u2rd9jvJgRkJ0wgaJ5L0OPHh2MWJi71ELynBXAhSRGs2jj8c4xrkspriv8X2RD5gYiLKRRZZcyIx4386x0jJXoyNUsaXcetqbxNVHfr+T1HXGGm+v7oPaD2xMXQU6S5H8JVEnE8XTsgvB/e45/zXEuxjDxuE6+5KMI7NcTh39V4hIbHQwwJClUs1mabT8KdMKLR3MaJTjjXA1WjTZraqQ+R2zjW6sXeAQTdD/F7GqzTLGWPXOQ+nrjboTMNs+xYMc7vDbqr6eWLZvY8r162skHB+Mjklnc5HFCdrI5odDBRQKNDg4EAPID7g/wL/wpUGmvMuJIAFbph4UzKW4e9eDN7wc+qzIkGk++T+RGJMTP2UhawYrksxWUj7RJ3mGeNXQoSlbUE18abo/+tuVVDcOOZWThO2RRyUHntVXVdeQHnycrJQCBFyvcjZOw/oHqalkeqYRoQeSbIW/Isv7o4pNA/bJ7GYihwoRU3/ozQ0BNB8kq8H+yv1adO0dzN+dCn5wbZvuww00K6wqtx//O38AP+nfF18jxgsn+0OHcLF+3M3EzzBXpp+dI1d9O9sVsYParQHrmT0HHWgXvulPr1CxG1bTm/o/f7FZCoEzrxKVphOz0q/1E8JpaGPa+vtaiHgZxw0YwfM5Aaf0j+QQleLZkutgc0iGdi714uGR7hiDXocXeZ3Bm81byRdAk+K8HZc1xKhgsJHRPSfBXC/bCu0a4bh+XQCQpwf6bsl/GFWmId2wF+ZBPA+GinXpY3qnwfa5jV3dfaIYGmBnWWPnV53AH9ziJM85Q7eIjuaY2FkoojntA0IFwfxX3T0dsgbReXmu+xV7z6PcS+Y1SOCzSK8+UB1UcdQSfkjfgn+2TZvzDhQPm0JmpoYCUfxWJR/T9PhrXC19IGz0mApO7KUnG2KbAPQ79dWYJ1MZk14VoI99qcnslO9nJhgjrU59RT25bXKw7oQ/5mt3/gd3sT6DHGTN1jTo41LtQC2V2TWdOwUEf9BFtKCFOPeorfrkciLe+OR1BQGeMs7puvl/V+u5oGB6rtLzZiN/MnZBtBXI/Ro/Ob8E/cvLGGLi3PfhQ8GgGSpeAOkS6oCUwM8pl5PllCdwhVu5H3fvarX4CRMoMUS0n/JEHtYoRHDgAt4FhDlC7gAJ/LNCjBiK8WMIf0MhVf9w10lt/qkl6cSaZxulGidhpC8DmjtfyNc4puBF4AjHcVYVFu3iEx4TivH68HIceWbN8qlUeLwlVlDcgFAmHxJKzwjJhttU6m7p+WV8jp9+gMlNEczXl6BmmqS0A6mIVIGpzvh2h8w7PCz4VuU30a2srXbTroqtPKflVXka2gwWuVafY9wLwKICwu6SIrt208jrCMJnlgp+MEQq3nUHH/TJ6uGxYhX+x7Aj84EX1VZQXV6VrSoU/BGxIkaPSuWP7nawwFSdCxmZsdDk3ktLv4Szb658oOxgGzSMPVNcpY9zG3ZCESIWFVV92ZOUi3u0FSsGzrxJy+a8QZo0PIgQB3gPuD/hD8EVQIxdTOtAxXFNR2J7etrvaPKwz9m71Rkm2M3HwaFZ2l02XhHcA+2PEvXwbFLlG7fhedcvNqvNdXV8IGpOM0BLzPnLrKcyPCjdLwzloXqUeks4Dwpyx97vCM2q0fQGjPCS34IhObsYmV8bpRYFh18KfxP5CbOT4hkxwzr6OA8M+ArR5UchxCQhMtCHsxA2OdiQ14sMMOnfUValycQFdHQU/NKPpVvtcYWBJlVBGC0BNWRROUJWkW18mZNSFBxyiNThGeIqWG+MwugUKtdVj+OjZKGeG7fg1O8C+hnp32VYqc5nUvKRlZv6OxZWU+n5rUwW0ThyEYTYVAAdVmEyZPvUp+7jADuFzFKrg0RRvH38pAFYnyPbjpLJuKtlnOCF7v5IoP+n4VHCahg5+2+hwvrps/Id93yVNzUwm+szZ0LOxQKji4zGYMAeUvEB4/P+8RwPnhfrbpKh87+vGzkoza1XJl9Ga/5a3E5Yv98V30vnc0X/+0LtqUVywIzohr/TVUGY0zQ9nrpNk4E7u6HVQbJZn5rgAgTYvyMmzsVPX5yllORONICPrcmGgLW2IJtctqVnYFLKfTfK1Deax19L9T6e84uMF5zVYP83PpImpldNfEfEw6hENA6A61XshT78rXNs/x2FxAnXCs9/07r8+QCo+mvlrqqReGoK6fkxUAZSc38RAeAguD2jPxQ1wRQIKxpm/Brrk+saC7QhWGsjgjywQ/Z9YspeUx94Mvl7GGxO1e2FYNJCLbwWNo94YeEdMSMnky9GpoZx+JV0yPnQ5seJUFxBd06j99PjhNIeLlmAdqrTflE65R48EtIecRPmeRLQcAdDc+wz1NE4uciCPzQgHbiUEBjTOeOv8siwZtOCmPnxW0wDiMYy/hZCiaVVS+1ToEo44w4cyJdov3ormrPVb1L8KWXzaer3BHhH+897/h585lgYMFVAwQAjS6Sb4koHAjX0hpV4HhPUUdmIljZ7YK44bGKVrd4Svt+s5mLgKH8XCjyrcOCcPymnJJbEI2OmjM0fBMIdsYJ99gVZ8ZT49mM8Yp17TeZU/p3EU9PzpOkDOO3EHVtogwIdYSL2nA3mv7C6NaFlIZdNdsG4W0mg3duQ6z02o4n4V2Q90/JPk8i2jx7HU0BedfU+9sHU2sK+Sw2GGcyXFldnz+JzHhuygAP5Xi//IfJgu9x23i+iUxqsZEPfBzbgxtgyZiHpyAY8T4D4FeCsd+mzIsVUm8z44KQWhmqXWQrjxikNmSVAqTUBF/xtbpeehgNitEbRWjQ8aBALOA+wNB2z6hsGG8o7flkKz07NMAHLXkQCG40ygnx9ZnOIBTKAIqumvBb+GK4S/J95B4gWC3AMvTvsuRoedMeI8MFkTO+Qy8itAKVi49TdVA44a9P8Fm9M8Rpguo4JfMUSHeJ2JDyClvjdsIIFM8rYjYcVkhNsX7X4do+J2l8E+VZ/ymUV+kW85n1rcP+viS0ZBXvX/yS06YTMLh7gb/ZBefOKBO2GBu6tnMLKzB97WKnpF7YGWcs9MVVVeTi/0Gffan0is0ahN/jZDboR4f5cFbr0QuwHm+BXby8DkCpRwKtuQDYXzk/ctxlGIgvx6h+5N3VIaC4BN9UwISARTfkF74/1TOL0T3JmT8rfLqPw3dTCMLjVm9K/jHwQYSV4N2AlRk6tgrC8aUX4KI/uyhmXIStx1dHOK7oX2EDykSI3W2fYmmDUKEWC3+uyfwtrQhja5T2ieyiTBq7exMBLXieT3ciBDTUyC0VAyTunr248HtEpCWWnlUrs67Yk2XBRB7FcdyPfW8IbUISj1UsnnfnwSeNYv6/V4R2rLGIUd18lVi0L8oPHoJe+wLrPmjpaPF9yaJqoOILsFqCW29n3L5yu/7mztQWKpLDOF/dJe91OS74kCqLcQPLtV7+xfr48cDfa2Ai6Pc5KRKNCk993Kz0pY3cMEJNL9uyn5m9lqyF8XVWowH48gH/p4mj+eQ4c8n81tLZh7icnUnnzJuVrkbPTPqQ/kCcJtEgi1L3N3Cw5idQ06HOx61IAnngeJSMWxx/u+f9tMcO+dQneiTuqaXTWXhpWWacirqk6ULKXEpChLv46i+1z5zjUKMChj1Dewrj2I8MWmMwDWGUgnx7CHCzOVpx8ubQuiHiq7iwwNQFdZSm0FoVUjYmAZw9RUsvFpaWzhdL7jeeStKEfOKaTNm9tA/wG2RW49f92MpIgMTMYpD8VXLkkNm5K93neIe1v/VTGH1uvt6lYZX3/z1d9JPI1VWBJIjlOLQiQsw5uEZKyymFSKAM/Wdc3UsyksIfVlGYiDeBoBiRG0aEB4wsNCykMp+bACYAj0TYJbLJbXeFjmYI9C0nOyLtYYm6tH6Y3uQCLMnUpn+4pd3/iX4GqHbNeSVKoHVRFnHXMA4bQyIni04Px9FHZhp+YXW8RhkuXnSRAmZzlttazPOZyptI5X1CyXkarUPee8biYAmc45TV0eUfmOrN6YRaUod+KDomSBho7dqchp4eZBD+jrdAM/sHC/bTmnCkijkYsQwOa2VciVJRiYTS0pqQrZjWNB7SVSh79nBiSajQ8aBAPCA+wNB7eCvijX9RuqTzljoTw+wZoKpQbAkrZ1EoVe/Z7i7NbQRu0iJ+/4fhuqn3YlQd1VgQw3h/yZ/EwmwGeJACjbnE0ty4tGdJjWJJj1HwLlXTGTwdsEeK02hhqtLyxNL9Lfi+nYCpp+swY727L1r5ek4BGn8QYUp7Q4JSyBtrwjqvI1L8C5eRQpHqKYvSSSEU02jsPdxhuWiNzsZtzIQrHsZjc/NH2gqmYP1DZgZbTbM+OHJumwzfjgmYHfgVSUvrr3SAO+sO54PVJik8xo7P0dtDHQXvNGMJPNwXPUzcNd5Xq4v/mmvTm0kVEjlPj+FfM7z48M+lNpRQSdVtHeLUf/z8eI6c8uhjVixQB6jdvINp/iBkKlBYuBl8eK6QWYdCrOWThoylb/MHPyljl2qEiOPHtLBd+9/a/TN4u/aQ2l+mELEYHSmvlQqzPjQ+BOQK33TAAvmIHuutxhi79iFMBVSIPXPDz7p+VNk4hMBhQ2vl2lHhioAvGkwvf37mk/eq+Mj9zprHj45uU2reuT+MVcOFsRLWvm1WSfoomhZQXxehZSJxGBMnvlDcn06B8zxKBebesq4dSeqhs/LFCZSD7QHZ6jdgsEiv24Pdr5xrG9411JO9KkHnhoI2DpWGhRXcbTagPoWVo3MGuvn6rTtayTI5O7RfzRMXznc9axQsoZSoAc93z1ADzyJYP3NoDf5r7CWfa0s9+6sQbIZXZ1tTTMZ3fFYLPQ56JUq8CBqxpjMC30ZbMwM4p0slfUNCzFz65SLUQleoFmAs3PSSOhYAHV6sgDGArohk2AIV4+iP1G1jBcGzsMV2sFPWMAvxMPE6VIPopGFBzIQeuIy8b9l6oolFQycMut6Nw2B5awjEEKIOxw1GUrU7//nyWhHl/EgAg9KcGN+9fs6PUsIWH75KjMqS+DtEnSDT5+Q8Xe/2WusU8rnuhPJr6LrIo9d0SWxan2StSsUoMBJG549oX/50pYhkI+ZCeKjHeUvkarj7dbp9MsgyQ8TZSyQR3PIVj9WssV8rUW5vXp0vwOptmR6DCRN8Gss4HbWF26fZzXhwwOajzmgFjyJxQ5JW7m5gZ3QHOYjtvr+o40t/aGllPUWQE/stgiLzCuQbqXMVBG6ZkODODi65hVBneCDUOOKG8zBsG27S2AfKtp8LZaUUI30wrvQIhBftoc2P0hBZuY9KWuUlRFKFMyclmCaxTNYROpCEQQate7x8tZFrxNj12miVdketK7nls7hJ0z9SVeYWJ0kYsE0+fp+AjwCHzebQDZjtVGjQ8aBASyA+wNCdVyrCmiZyYAAbDmrbWBF+UTtVtv+2qpBW8W73IJeuZ1Q6Vyq8t6ICXh8ZgxtPgmpHOWUz3QqnhVLcSddVizTmJ9v10MW8VwPrUbRbamXThp1VegujMbpAQ4AhyigBNKdN8CxIuBYiiwSQMD1S/Ht/MrY62tTFHPVf8rnm9SiaDYWCHzTRsdqz6C4GQbRcmpUoTk9N38i2SQd7JWTxWMEJdY92KA5PzoSnHCp+cCU7tzXA0jezK6PZKY4ud4+Jxj5XIi23LDObk1LAlkp0iKQdzeW2pbwE8jRvKN8Z3J8r1BO9Jt787Xb+wS7BuxUIl0H6l/Sfizl7A6W7mY7Ul4GwuLyTg0ILs5LJWqeLwbyXCAtNKF2jkswHdDYaZND2zmiCq5Alhvw8/4aoO/yzPNx/Xrvn2s72wT1G6UVS4/ZBdrliNVsVl6F971e7rruKOObyNeL5Eo0bAHJGFW/EhdHrDmUd12fq6A8nEmpSN8Ybh4fAlqdDwdnuo49ct3cUUw2xQDbOLghZY1S3Gmrj/JuljmvjE9ikAxanE2vodoz7+tw64C+ox1q6eaRmIcXYYqIehT3YeBwRr5Q+TWsBLj+YtayCtE8bIaxeAMufho2/YT27XLRo6XB5PjF26JUlPYf56WTt53xehk8K6waP6ZPkuKTHe60iZw4TnH3vI+mjftUl2JzjbmSG0KbiT5a9iB7WUKzwiRFXJnjdui6AWd+xQrCeaHLRrTyaGyP1I6kKglVLtihuhk6jar+jJwgTTyCM2QDJ1Gx6B1n/rQx2OSC7CHi6wfpSYPRtSe6ni4vPX1Y2QOEvF1nARM/H8r11NNN5kvXq3VqIxLLj7noAMHv2t7BW9yuMhcUaMaE+AdZg8kyO1hQzhwOg6V5TTKTnOG6vU+ZoVC9urrXmCeckb6IAbPnnU/J31vOZwWiXGkFIdVTK//P7zB5rWczNNA33X6inAbe0CTKmLzZoGQow4NNnUzYZMJvDgpHpTo8Bbo4tDO9NPYw9Nalk1zq+MGvCGFLSvcThZm32ZesYIPdpcnBGHAdDmG/8C2Q41vuFNBdxkGBOM1lStoUvHQpD5FEMa9zTtkxf/P1On6e3lj2kpFNf+BMaxUx3bmkHrTuXUiyZCdZm1znxlA2hQU1DSxn2HymP512DofCwFvq0FWzS5+0ab6Pf61J5BN9Yf99xgmVZM5HY8ZuXlk1OwrZLPSZ/w386jsT453QsmLAXlcypOf3oe7eu1/ZzldMf6rX/qu+73PnSzIi7dBfjpcpZYaYCfWjQ8aBAWiA+wPcN7tTaX2ZWSgmKWddOvhfpYcXwRYWFw4x85QkhBWswQH+AjB5hG4E6QBQO/7H1VxzLipFwfipTNMw0kBbl0Thogtzznb6kqRrvRPSe/8i2wplyVPjrHEg6k8oEL9J9E0R7D0p3aHlhC4r/3v9zZtRFvWk2Pq7Be8wiMDUIaJg02/tj35ou0ORNwji/iF4gWJieIK7Zui7O+pqMXGwdVjt+MdfsJHz3u8eFejq170bHeirV6keghVm2tEMIHi8Gskn2M0fcNApwRuIp1makDSMC/MC0nIF+eptwuGYyEntS0fxHUn/NgjTgg0mprUBF4E00j7ADquHkR37G/W4XWX4Tf2XQieN5ssXNxBiStjrk3HNLkfc26D5jkDG/NliB0m953m6Xyy5Ailk5UBKQrKFt2DzgxHXhxAKe75oLfP59tresbS/gj4uWkme98Hk1uhY63x7eVMkeEA4gefhtG21tb/ItlpKlAQ0pIkoIcgjrFcrCWkEg3ah7lQ3FpWzY2KLazAG0YLaZGCPXWuELa2wiaRHZcq9lKOu0BFcwKuKEeHgK6/BsvOLXxoi0BnBULmFl8LtrWFD7gjUIeh/T9/kbbQQvUa4uQZeHGgt5Vk4XfpCrvmYljcqqEspnbHaLLEWdjaS1ZIDGdc1FVCsnF8QGH7RQuyb9hOfHFW2uDKjslkxwah6r/DpEQOuHEJFZZ8NlDVLFp/j0N0G0nVYkVEnhvmPWYaqNiLMqlvnmxsOd2i8wfFNNHL6SQoWsGwGcWaXBHwZnUXwOEK6C5zyp7Kdx58Qbw8NbBKYQfANGiTcGDQHelxBt/4+YNLwIDV7+od7vWUM6W8cT3KDSXcIugH3Qm9V6nvUV0TxUd3qygckAz3+bb6TfcOxj4yrTc0AZv/cPILx5GeU3fxmkplsjbd6F7JRXenuoPlljlSktXX1Q4wAc9g9y1Nf+7VmU4YeawdwA57Wo4yUmUA7hk36VHOABlDlMuk/DoM4HfMMc9noEbz/bFUWz0zDKooWz0zq4Lxg0A5vyYv44uyEp0VEzDbBYiysvTP0WlHF5adUijTzy8F8CJ89fHNCd+hVx0+TwgqVhRtpaXEdtA3o4qZEAnB7v3XpNfsVjhOiS6R/z0wHh55cNMV3jShycvbmWQXcL+1Ykqcso7YbuHDCh6P3jKV/wNMkfoEFYo43eTDXpgkN0g6laIXktNzA2ztj+AXHI/RLWQWDMTqMdQCLGHJwx4T4l0rRBcDtznJZH9ZBOjWYGMTW99CmWk8lVZF6txbsmxKjQ8aBAaOA+wNCA/+U2MNgpgnT4Of2ZmGjRitslI9RvMyJJRqbM+UUFzD1ZIIbv33zMU5rBb52ra7HRbmX3YleXfknvX7cTSKE4qtfDzpBdrJhQfF+Fq0l85ONMKwwx45oqHS4kBcT3CAeQBxoPbf0ADDUC4LmPZxYgy+H9oXd7DmeNiS6/cptRfOPIiYjnwW7he/gt93CAErdUDCK1nwvBZSdS1S0toNLlJ5Sml8R4ImFnxxYnXFnqRPd3QRn/0AW8KjRmK9RScYYh9W4dYsyx5HWFSr3w3z78SujmPdqJDV4dpyU852vICiJHCP91vensVqRjsLkmwI4sXOKuVgu1X9217/rurlCvsXh0203NgjziuaP8cpqJNCcZWAbhmdUahcOMTQ5N/e8TuvnVPjF7n6JjspgYUw1eN921UP0hP2QfU8AwOY0q9qCu+H4RP2Ws7H+soIIsIUBxkEibhYTr1cWH3QoactORpknVnYWKkywBFcXm9Bp0MnhxV9RYC7gdJKqD/ef56FeZBUqYb3KeLbY6CP5Fg1HtQN153jtSZlxIEu3LZ1RdvJdLeX7m0qYNd48I3FPTb3iGYN3wrK2ZarxZ3ayGIataMtw+KJ6wC7DuNaOn8LMSm7OfJhbFeS560DltUHPT2YmD3ySSuHmTIRJ5qbkqghaIGzu+kr3qac+PoLUt4F1c0DeS5bia2JHNUCSj0ADrz0RlXq5nYqdx8XWwBgNeevjQFNbEwejB5i1au0dumsbkRRVNovTykV9BsgiPqOzQf/OewVI8uTfI8EDV8Qv+YT5A4mqmcCf/fjJZ4yVbgphwawLg+Qdmc1bI5pDqrI92yZBy7euEITGF9kX8sK+cSr53FV7a1SlAgBh5ZKo3Dc5xuobX+ZF5mApuG+/sBPEm4/m0V95uti7Cs7fdRtABKNm4t2XfMojRe87IWpMhFybDTw4kdsRrKhRCMe6SJNaBOKPQF3VGrJfIu/Jpincf680CPApS4ILaqaIFD2cB+qcJ/jtixclBVk3zjwAS/QDHG1MZLlNjrjg9kr0fzTQAwUJxEgeNFUA0dEGCWrjOwUY0TXOGnRLSrNGRAZs2vJTycSgL68bkpxzi7WmLF1/+fNCd/v7tZAEG+YifyBoPtxA4R5JRHlJElwBkRtb9CF4eEGE1AGXAUy0CWW60CJpVC5Tbdauy9v/Oy97yWG74FqAL3Sdn6MBS8XMg4WAoV6tH52Jp15yUym0RxyVxFx6H2uktP7RHOoPBXgwzrxlbxYzwsLiwUPkU2DikpT1CCaJYvWjQ8aBAeCA+wPaSFtAImgUSZ3PRd89ntnULxNdDMq6rsIdX6Q0shsYf4eD0Ss1z2dQEPipmFc9WRDFAqtFvfnebfnDFEOggYuuqNizpF8ID1LRRqvbNzDgoARC5+9FofcmnC6y13vVFumoYOBd+o3ObVYX1NXnVbRKWeEX96vaB1aKjLmX4kOodneOIXB0yqLD+UA8NgRRRWmwiH+4YGRzo3rnFEm4Z+paRizrtAsRTGoiVsV7IFxhD/1OAno59gSGV61plAQrcWVVYQmUoppvCkHmvaxvsEDlkd0j+/bJsi5wHgPPsBGZpzZqOOJxeh0JbnQfdslWf3B8fYtVBpcr7DN0qWJ83cs9YnfM0Eyp2xDOs76g0PT+1QkMC1q+AhVftOI+V47ikrtgg7q9wpbHrKXWlH7Py7MUu7EU3l2O6JePMJsDId268EHx1/py9D0amRlX5yuu9MBSF4Jlu1OqRrZ4yvF7BHePiOefAlw7JzWDrFxedJUZpcvGahHjtGGVOb/v/JuYjw8NE8b/fNmxC308PF+iboRNDsH/dcYdL1u1kUK3W0KZLVj8LJjJzufTzg4/XqHH68fWi4691pGBnILraGKIjrJkk5sClx9JjoSW6axMuHVh9d3si/JKYqEJwcjCmCy3+EaRLxkV2yNdSIT8tBIkA+h/34FYDgK/ZRTPLlPVKwKADK2HAlwtaqCaOpNsRGRsxTzaThALqqZqLsT3EzNwMUpzGk+fHso3DqOOVyIIQknP/taqvfzTSyRftCs2VIBMiWDlxnVZoZLAprTTXIFHz6WLcd0VFpOpWeHwwdDrUFX4on5SII6SV6d8nfmUqRqE6qxf+rNJu7bK10wTqi0GYewcQt0+lIHHdg/Dgh5aL2XVL5ZJ9P4m7hBZ08Ckv3jOsGeheBCpEEmiacPz5Hz+fd85JwwpK+SKtLxpH8hmcN3qEkuJ+EtERK9HISLPSjaMs+Ac+4D0bUSYENAZyYjRzZm196VC2K1yHwBiYNHN6/NGT7YdibK1ghHncDlQes1Hz3IQwe2CKysM8wDanLXdudgnwZKiaXwYgHC+ANidIoaIg0nzy55HhTCwj08ZQrcCRyc21Rwi50w4+pI784dM8IOnboLuewuZVHh5m7xaBKAXyXeep0wRJxB6OXYAy+/giwczwLZDVB3yDeLojcjqL6QlTc6NZzvqt0/y4pBZ16GikC2qUxhslUs8oh30DY4PWhAxdDgD0Y0ECH0GyuHO1UrJHnCsGi5asIIK39EIk2+g1iA8xilMiE15jN/AG93urpqjQ8aBAhyA+wNChH0QwFacFlEMMW993SCHSNYJmhBg3+xunpmLaDS36g5x4bYhSUDFCulOq7RnQ0NPO8mXk8/4SRj0wVQLUKwPhlfQ/IK1BJLBUW1kQDIAZVXB0VwM5fZtwBspnO0iEHcEV7Xxly+m1bYIOy0vKt9nbu2rLjmeu1mqJld3j7ZV6nQebNILRJCp0PaaDJhKg5qOH0ZyNj43ZfVN131gnJ8Sir94VI6g8EVJK+8B7y/5xiP2SCE99WEbwqVgYjtJZ2fBGlkFF3i9y7ZRlQbf7PWvMwjEjGJS8AlKG5wMotR1JDkerFUrkCP6F7/wn5iP8RJXPftpHHc69ibsyDZXVieNia9NCPYf3xe1YIyEwsi++d0A8m7u7foIEAXHEEPi9wmjp09vXUHzfyE2nwegYGEPYQEDl889P72o79faMsgHEkKc+p6d7IfwTMB+zXYLQoVGA0KfjMRJZ3baBNC1iGzzSVxriNxyEi9h+2DpgZdU+FEWmDHdni89Tk9INdKSpFgytPhF5T1pmQygS94eq4UY7CFEl27GO+lnuq5FoNrQ8p8B4wQ4m5GfbM1GL0lSTkN+NryIFO6pY4Q8WTrVGu2KjUSt6rEcY7SD7cHpjcKDoxNy5Quy/owUWAm5jmOkGIxBqS61jpGZRC3hBVR4O805lOnAsWhHGeTPzMH/PU/TQsv02q5JTvy3E49NyQCMT2rBIYyXw1xRjdPFJFQ+yTZtvUtZCu8Gv+OI67jZ6THIwBMJBDIBPvUgW8NdV/vNMSG7xdRx0EMJlpOELYWri6cZyZbTbXnYkSdVDhR2TXmz1AGYpZ/xkhR/SBcV3REmOytKFa9pqKSdMQD84ANte0uZVCI5WS9YeILclo2Ps2eJdoOamkRayasJX4CQA37Ww0huZbpYcjzLeXpwQd6k3HVObi4c0hyILAtdYu9vs4srbGH9JoQljmo3RSBI/HyeOecH4dkYH7w667rHgmuireA/cUlQAuTjpQqW2FauIPltPlyLdE5AYI+biclDznKwvljXR2NFCUjTiYCI+VREZe6o3Hm2BoSB/EUaiDKoWyJRHXHmpy9F6bM4m4xMWC9fN0Kgo/VJP24VbfYPednMzed1eaUYJdSeFrJMVk59AjsADauN6gPtHrfmsu+osfZcdC85k4X0NzXmL/Zugz7HWz/E3ONNrLWMZgBJRQYx9I2dUgG+e1Yo0KhWUdim0kFZWRFd+Zk/72rihBVQbgQ1edJI2m4Gve+oOmpK5Ftk3YHs+Rd6Li9jBaTkh8W5YT2uFiajQ8aBAleA+wMTy9rSTGCkbdNMGMQ6mCv4XpxMzlJhzLL4fZ0I/w38V9FleJi2nulJKW0u/NELLWlKVJ6uhTEZmA1rgNodomTuTJh7Vkw5LxWRPrwGnYPk9CU4VSVm/lwp3ojLbFNLosYK3svw9mW8QehBAc6I96TStIMfJNWB+QQ2Id/St0PcrIKBLg7RIhSWcCiowvtVohWjKaoh2GNWdqCY05mI6jb12T8RkQe7JYiUU7+neni2rVhqh7xSjKY39qYG66phYs2fCrPhysms1JSbTydNO91MpR62usMORPqT7qx/YPTxs8oQabLfkMbFvJKKmKZ2Hv9l/mOIi8NdvCn5kSZyo6bZHqxAtY6cbmV93xHXlpjJKxPrveDxWEWYJPJ8T+ddHf3lHBjIKQ1Oz9P9ZYgRjF+XWKJYaogEEmoLtZ4wgAEBMDw5qQdyHVpkRS84qaVZbW2pqLflU1OD41sg7BWvi7nCfjK36MNsBfuRTxIeMWFcESb+fuzVsBbOq/geTAnnuqVcaKux/OboUaiKMw0QDpXzmQbePD3ka4QyVl5UzGKs1lMeA5OzXbT4m0X51e0l0GeScijn3beIOj37FPB8MtO1WB89moiqKmhEt84tbwBar0+06+9oK3TXvccEIDg3f0WQaEhBkRSWuJgNzkESneIGzilVB14+XifpDGmzYCuMNwjTzAvNID/N4DNTjwzoKOVC7oxGZNMdlZOKWJUY9O0p4qdkPnpop/G5SG6Qr6nF4unatmxSfAe5SUnfB407v+hwmc37UMTvmnyywT4+aTiqf1YGkOm5AUbvCRUYfDyg+7mXPIehLpSt9X8n6cJZIiuomu0vHkQSaqrG/mKEzp99Qs6nrCjUJwY6+Fo8fukRES3OBXBOIp48ECo/iV9lc5sMwquRaldLrgz8PQpCUDKhSEJjUhFfRrCtaFfDEsH5k3F8KHs4L4OxtHEVPqYGZMDbcEA3H/LCtz/M/W4AYN1Q/QCvvnF7F8coR+US6Zx4aNZPgg6d21K9kEHC/xuvrHcDDc6FYdkxTs+R0c7W4iekmrnsd9FzjOW+fRp/Ke5aNRPzqzGQOGkafvAKGn7UyHB+iz0JIumZaP0jxfk+FqjskwjrJnLWqdowAx84tFsO9XAz2p/pqeoRWRuhiID+KkzHYHRhnY3XHD5ikoOZuI2KcGp/pELgvb8et767r7fRNuZodXvkpUoXOXksoNbCLzVfFWMa0NESqM1htCyLVQXDuijwaTgHHLs+zI8mq+eyl0fp9+/6vIO+6WH0lHCBsQKjQ8aBApSA+wNCb04iqnptg5YoWrUF3S4O777FGxsnl4Sr4p5Cbs1HkLcaAh5PN6lVcrFHVO7q3pGu85wrylrRyIDqsm4LlupS0nFvYKZFLGwZ2MpuvOP+8G510aolN2Aq1J5270yB7PG9wjwtVyzqneQQBFygnSxDJtrAIxQ9F1IqUpAOHZwKCEeUtnKGdzmBdOoCTsu+adtGd3NdqBKISohPXALQVDhTEi0sdNfi9HbpdEUy+UaETG1ZCI741cAuUrwTI9I9XZucYYi9l03B9T1ELXKMcTIzydjOBn1IDEn34yZeGW2U39t2X977/2zT/QP1Xf8MDfquk/IKwxXiS5k1xpNsEuu8XKMsNIv0IYSC/EhiDbjX0Tk+NYS0bpQfMlFGsyxjJbXMPXL2HvYDuH6qqM2Gb/frO5mTYZA2pzh86Z6aoVYvlRaIpbw+Ep3ebmcFOQ9+N+BQviFvR2+gDyDsDA0wXudsLtrCRYxshfPvbr2v2A3x/CGuUupJuN68Ru983dTeEIO2JaTmeeK9IQirsa19Y6g/8Gx8K0KCMS6/D7JafBXrL5ZlpOukmYRLwQ0Ic9ATdEs7sfIUiGYlQVdGK9a6OR3G/sAIdZY99Hw47jro0RiyxfyPGnUSqhUg52oYVl2ZCd/qg/t6o+CrMRm60IjZV9RPeKlyYewTmUZCrIQVnyYO5kBHoCbI1AWTdBxqLP3oNTvEAmSZcqMHhwcxfZbvfsNF8Yu7ZiW0zj1opP2U/qU5JzXVb/qpBnP8qds9lBqUsrvc/eAvToRyudEb3TgRekADuD6Vg5xCNEqueihFo7xuLI2d0Hb5coIA7jSiOOHR9Dk3v1xobWvI6Y5ssPJj72gEVBa0BBBRTqDC1fQ19g03u0+KhYbmoKL9/uQXIrdC9BZe5l1QpZhS12rOUHrS84O5SXPUVbAQxnjbeV/BKKyEQs3jew6XW9BaXWeJP23FHqcyTn87unuM6qT6lmBDXVMS8xoHhvnWKtEi0dSce1FiLTXIup4zVJmlZUPCwzEgdQZIl5Qi3vBEPftTjGfzWpVeBZ1YSsUJEOrquR8ctNNNUCyP3I7ZmtlHDn0rI+b/CQuXyNINPCF6s8c9ALwZZcmFEri3lcVTD8TrHSHAnN43aqa7sY+7bN7PsR2C35mNCRcp1bMyRqwUTwJJaUniXY4OsfDovmVy8dD0JCfoFHSE9XfnXbdSSf/MwGDOqtCuBmO0m2u7CJrQwUeiCuDXH1SbpAYFYl4kuLU5SVLkcdaXY80T58ue3+LxjLgeWeii5CejQ8aBAtCA+wNCC650NvUQ43KewjGGRIy9TM2HEFX3zfXuoGsQaR7TnXTuHSdHDGay1XJLYdzEDGcOa01lW0C0Oa+bpwxuvFMvAbCFWMGKq5GfqIM49sR6ApPZ/u+vW5kPvyFx0liy81TYCt0lLM8N6PKyWJi3Nzi9bLowcyiJ5n554KJvrUNiclq3Ch080TdiDS7sLjLVmCJJ6UcEP/nhh1V2ZfbKUWkrpmJR+dyzJwWG0S8G8mZ2ILx9NNZ5R82ppOWYcOLDUlSen9qXW0bVRrFriKY4qT5QhIlO0iVpgFwf+BFJYK5+ZTGhvk/0xXairyYY2LFinCK0/Oz8+CiN+Ef1RPFQtuGbtu2NPiUsynbrLisRcfxmSJiukwX8orFJXyGhK+4z/V38DjQH5Kn7AeWR8SBRYUaTeL0tEz3TlXzHElk2HDIOhULiFq3drXxK078zCrnm6hIBSEeAWUvHr5/tHhuZWaDpVkBZH6+Vw1fJ7qe83dHoWI9XsXPxhUXYMd/brmxN5gPI2KWo6JnTixWhJRYIpAJhiOOfUTTH94rQ+XQFosLdcnnxbqQ98g4MUCaH4jaffdDT7AxJNDpsgOX7j9cs5LuAWH2enZCWEmctBW0YP7dFzZ3mUd+u1Z56o65cquJE6DfhPIP9w3hq/Bs3kQwfZXI00fDf9OwxCMh9U3F0EXAR2rixVZf/3FgODDiJAfIP4THptCmvbhLN14+IAx/hqdsD6ejVr2V6KratCpihxdFCQL7kI7gtNiziphWsQpDsvFfBffbWfSXtFP9nX/T9eBn1TUYeCfZVxn/YBafsxC/I+fnu/ATYqtd+qZ6b59ypPC9NcjsqRdxI+U3XTavVIkEYQn8fgjt0wrGsxE0k1snC0KOu5x+rkdbkwYrpju+K4sqRYjfhTxXUe7cvNk5xPoEWWzokTe7z5Co0XbVlbe8FIhYFkqEuvhK4klVmhzDwsEmEkkqnA/SD83xtKLaex6Gm2Fk+WcdEIGjkRnCtJggkx+wcGJCsN5lMFzsOgUgiRxL/ns6JtnRKwqONr0CnlN3ZGkkujN0ZZFVdEqj7GBdw9sZa+iU1iuv7Kts1f/sUuxZ/82FsGDmuMiICWWguL68/FZybRbs3yJgdr891m/Uhs5e+YF/QX4cz2nNNUWOiZ4QMWfGxvyWd7a9Y4BSQ9ys8yOXeGlnGm1aYGb4sSIGPuaJ//LC0sI1C1u3w7ktIkHCk6Rc9h8lh4zHQhkWNd0zY2/ViAO1TuIpCVGnqfDMWmkzgyqBXNtl2g7fbXyghZROjQ8aBAwyA+wMRns9dH+dH+++y9K3c/QyvZACRTfpjKCFuO6tv/XnKVPWLdbI+EfKiKO1meHePuPxqCDBHsrgfbFOF0aoIL3DCQyNL99NXDeNAbxYCEbOGZGUYd3bBaMhbMST5j+dhiBUvJLAZGGNkQ6yN2gmibXREOkkp7mtCP7xD8owytOBzHtgE71/h5DGKxKgm3iT90gCs8az1PL0NjNd4iBmPV/GtlvXE6SmAg1BJ9mBamZF6KFIO0SrQqmMN33Aoulm6oDaBlL3JRhdeZLy63XvmZQmOVvV/T14Ug6xOewCcfqEfB+g9BvWz1D1+C0neiftFRCyuuTAoYr1yrM6zRcFgCxBJL49Q+KuOhOjQKnWC+BYpkg/LdaFLZuCmQPni3WZAsOUmQqNGR7DrrPZvhc/cPDcKf+Ci70fVDB2Sn5GthhHsWkOkM5PTa1CYZEYyzMhWtzEIUkIa/tb+jN1K4amKzl/VcHKdrkIBDH/iNX7uVhSGWUHliw25PWe7rv+BgT31m0YoUagyEOWccqxBsiR1vFW/GPUxh1NJHsAYerSG8cOs/LT3QvI8ahlyFgB+k1joDBTdSd9fbu/yuFNJFaRbCqOp6J7nSWmx2pru8yfx0JR4rNlTjgnh884/H9q5KjVtI3GVPKBzAN2oywLT41PJCIM22HJzPAkoSQeUsWm4Gk/9X7em+EXE4maGTWCODkVGN3ZDACNQx3k9aBdPZF072xXKKKwxCJZD7erCtVU+HfkCphiL3z0Ylgq/G7RyAM+LS6wCUEmZEPI4XT3crok4y1j67cIomR/7Bz1+EJkYz4xMQ0f77LuVus/ZIysiWHq3x2IUxvzKxpizjZatwZELQ6OLQn+oD9BZMbnJ9PVUBMbA7nP0F66DvLAGVQJ9sl3skRCppXFWqfr8jmzVPymghA9nsYBB8GgKSv7eGSD52qo/1x/4mmUn61bmCoDd3jpe341YqA0t3ZkAnMdalVUEEt6nOrDeC1oVmqdWz9XnJWEhWixXm7f486LCci6xl8FWpCHx3JYUXFZjdlhweSw89AJP4qsN0hnTXQ40bnNBKC7ljamQtp34tXHyD5o5UVZPQo7SkvfNk6QKKFx3EIcxbtowCIISGVeZBfWT4RDVXClo1PcuNafaciEsqjUgWftAtBeZh/5buV0ZXi0kkgGAPxLdV4XZyJ6r+/7P6JVvvvTPQ0CrF5t1M7v+wKt/4sKuP1nzgk7BI1AQI1xjMDQlU3rpUkrawiAKVuRcpzHb1IkBGiT0YLSOcMwFkPCqUlFMxdSjQ8aBA0iA+wMQ0CCPUnzoFnUL29Mw/XIYSp0iEr5fTRJea3KnO1A8wKEeip27JKaGEkFYCOHf6cREJK4AmnAKKSVR/G5kW1uYIZk2mc9hcVhNN63Jd59/+P7NS5Nh8iEQNTX0oTjTePNQ/mKoPwrKuZHhbtzREgGFcR/QETc8gi1ehQ6KnrfYeJ3acEBBTwD08Q4MO1xrEWJeuhemg1iy52jRzZnOzMoxf7TWbschOPLIqqPgD5NemHMIW7JhagGM2/3Eq4JjUKV6s+ajB7iSHm6N7pw+DWDRT07yAKmP8bH8Jf/Qkqq5/Su+U3iSzwhKLoDdYckZnGWnhtNzWUSf/5ImJKvkpj7u6aM6a4HUZW05fmB8uDZB8o1zYdHnsjsYTWiCEttALYz30owxZgXtzkuQOKsYFd5daOstWuFOdf5PnrQKqJ7MEEJtO9u+k/Zz2ro2yyLwvM9vrgrfxmymrdJ6wRWv41oK8fOBGLAxX6PGjYMqRntt4l/2n8a6MgFYFs6HQSgy/2/PrxKzUzm+IdvFdr48KMjc0cnCRWNFUXoGErUlwoFCycakpaUMLQkZeIfNvS9cBitqOOrABAV7O9gDw7Kj5wJ8bmUNQUhHXnfc7I5ift0ALIlFtbtEBinQpVKXW0N4e7GRYuYAjkcP0xG3OVj5I1ngrPXgljDZHS53CEC9tXrB841BOG4k/R4YkR33t5DZ87mCEWB5WAwQrUPlPIsv5paoIJIBKemdbnBi+o30+erDkLOUQZ18kUbhWw8fr0AYTLDrK0D98Oka46USHCRHvxwPf6Mvp4+wdziy23PNdT+kW9i/5nM4hCJ78LeCK8s0qyYULQP5NQzV9Qq9YumW2neUQmwFZiaD/cUSJ/XIcUH6vWW9wRilbenvOmsD48+6WBtB9bgjivoyA7m95CZhJesfi811jLaobFHUtulT9U4bG04DXJfeUvX1cC04ZVkqmgeKRpGZfAV4mea+nCKDFKKhN0h54xIeesLoxk+opIYvbMNTCN/j8V82sGKfpml61vRIeEmiDEaN0vCn7CET0OhYTI3ZNliBUlKHrwFnW73lMC1qGg5MbhQhOQaoD6NK43dMRFjDSevX/vLA8H3SMXpoATBKkXdVYZwbOJv0nr/ZzW/drRcfw4qis8c/8yb50OudQmA6KHe3GvzXUepvHAtqrn0kYZR8nOZUyVMtw3GiiEH7e3rgvSC3+K7GGXN+8eBjGiuJ+BNsUxSviX/6VMY851oJ0+Buzrl/mdaMHeXNj0tTbgcK42y657paAU8Yi8WjRH6BA4SA+4P8Ef1AQ5R/fwdTlKDjQIR/ZWl9JI5llp1eQeptCc4f0kQxT8bT0fd1ahGZ9IOo1dadSNDsgUHKEFNfNP0DTeJQqDaClWWWJvlaZftaJfEXEmC3+TCfoOQ4FQ5dge77NPaYrx1/t3yLOoyaRbqkhH93RwquHNyNCX9EQqgEY6FPfwGFes+apXZjqQHAfv4yknxGgS/5L2NbQeF54uTCWS76ndzWXkR6I5h+RbAFkXRnI74S/x98tbnQZ2eo2yORd85ND241ozdqUUSZBag++Ntc07FCj80mBgApFpQF74p6411mL9vs/i4PmCTUN6POm2EJu9SK7+ea14Ehyv3ny+mT7CAsZQDHhXuUjfYe4FGUTbZKngdMeTYnYGem1T2M/lywmLLTKhOfsyFs9OUBhXuoMgUQt6FJ618niQ71R+ltFLsc8ip3OXbUNcr6UDjHAkz+NLrh8y2BgGi5ylKp7i+0J4nme4TKhv5/uKN4M5yfwgqC2OSwEG+o2XnTGebvuObjGnTbsmXz4/DUvQc9nC5EO19Zica4Vy/27TI4Q45R6MForYaqTGbvT3sZFqUV/fZTA44I/7Dt/1DMLK9mUan5RRRoxIIvwmaioDQt/9uMDBroYjz9wW/hFCFQS+rDptPW4y8APkNENeq6UcRzuud0HHvAAelBKhIfLkwRdbaSB/pfbJwomTNYbE+v6gqaNmEDullV38xGwz7AMC16LE9aR9Bj/KTiKMhmBDrudFWrxwqaZTrIdfGQVq+RgCi+Vq8q4YeTsmkedy8NVVi99KFcQYAphgcdwWomU7f3cx9QIxu+EwZ/09Hp0wRNa2WuW16a7tJ8xcQ71rErLUWXTJ9nWXcJDPhAWTN5uPxE6aDAt0q8WHK5OAgk5S8cC0aJXCjw6/dkTCR4Dsnt97okKrlxPR0uK6ISB+Z7/jQuWzn58KIa9tt08MQcXCpAIvalBxdDZQJYCEDjfDXSivxR3z7iuR+JHlxiOvQBMIzrxi5spWdcAvWiwnbQCL2nnpva3KnYBaYXl+9aIODRA93tjHPKEcKyHOay51QW5NXVDS8I7/rCP1tSn6BAP6qvD/UZLBCsGQi8GnZUtBzLr4RYcZjj81tf7F7SF2fd/kpuT7ITWhaacf2H/c6LotGxWlEalfhLdwTUEkDvNImIjydbyccRxDFGEP+ai/4osurCWN7eGBAnuGLDG5wRNGIYUQCKj5nId1+AyWJGO7qUwtPxoQTSDwjpZpBsmwi4Hx8ZgvaPx82UiiFKtgr53YuJyRqWTp7+MVFLotB/dhRoWNRNsmjUy2TlXomQsRRGFIFmf1BvttuMBuoMoiiRdS4ukX3pvi7ZIKcGbJyl03JHxaD4KkDy6a0dNIdBDqzon5Rerdj20zFdgp5CSQhC+TttMOE+2SZ9Sitijul4pGYixtBTixkbPsUNGols7R1eg7TX3SPt2rBrMyfqPm74k+SLo/UvfWWOe4PhgOS48/k/ykez19J5DJisZfzonka7+CTjvDWsQ5YBHePZPeGco0OlgQPAgPuD/w38DkLirGor9toYAXJBQUBBU0CnHv5GuFHvIWhqbRIOWJUqTEFVU5Sz4tqvelXIaiSoL+CEKYtoQJBoQtPDlMbMFGNEebYipnsT07ZDZJ9x9dTVRMgi2UGsO7Nu+0eDIIOIHhuhtyld2DbX971pBIaXGliVErXO4l6rTSCaeM4kg5PtvJu73r/IuwAgFdE/Ca0pyCa9mc/Fi2l5A4S9Dogdkwp2I/4vYmukpnVLykJ343qZ48zoF3jGdSGHrclVicfs9YTe2T+0CL8vRP1T2MDBoqJXaNO/b9y/d7cKi8Th4YenEDiPocpKozZm/jJUcibbm7We8q7KnFQC32czh5V9qUjOdRggZX8K4uCTUwEB+vT6SR9vCov4rhU3SNt21A3inn0RmM2zMbU98CdJSxFbE3y8AQ9UIWf/zs4BGTqktHCah7Yplf00XxVjoBIX/Bgk4aYmy55oBRBPTAQ8kFgGOGeKrGK/ekp9Ba3f5lnWgDSX3f60nwVvhfFKN3YvX7tW9Pw/pxAdqm1s0S06FU5oKQecOx9MmIS8WrkqWGOfkk8qgli/HuqxBiIFK0PGyKEw9F4HxBdiv3ZhTMTLssKjaIfQVV9Togt63QjD0jCVydMAF7y0ivJHxb2pFNvn428Omiw96SY3e9Sc/c7ygbW1pS35HM0tDIL0YJHijemtyOXT+m+oOVREH3XQ7s+UgfflMtf6MObK28xeDsVHmEKKEK4UaLyaluyuMaj0S3EqzdME544iYKuxTuMHIvUHc0O5b6TiN4OSgtMuYY/cLnaoZ5dNFMDsNjkvtBdW6rGUZ96yyry9TcOrF0J/p0Dy6G7bM0UDcp0XFUVVZ27KVsMOPvs8GaOscWPgZ9Vjg7Gzik/8zR+6DDqhm0DWwhbire3DZZ51MTynv2vMnE2vWMSUk+sZ+7b2SZ2jE+CL1Rwgun9floNbu0NsqUlj0kEiBU81MS/v533C0YjdtkSHpeMo4xpHv0cy6V5w5mROjCIa+fZZO7D4n91glx/wv4r1guht54CdkjTmvfPrRh/GZslfg0luYFe0s3k14yQ9J84kvsXIxUjJmKCfPYbFdMPayrnPkf1dpCv7kAaYBPUGc0Dn9LJaFKE0auBFnCu7OfB3cSZ/3mz8fNo/BVPeo7BSEKA2h5vXqBW4Nd6gu5SYCbDFRNoRhxVq1kBnlSeTclanOM29ZA4yKQXxf6m2gVaeyV4qQHIq3Y959csKoJsmo0R7gQP7gPuD/Q7+DlKeoYb1luF7P0XryqOsEBrH14dePxS10vEZeRQ7fkG7S8HukRSCGQ+6xwJvg1Lo+00T0UXvvLoijoq0uSzz3DILEkxrU+1UJCM/zWYoNl6k/vE2652C/JuuB0onkF8ohR9mJ20vjrSx9oioyAt5OU6GPJZyjPjVzR1cEJRnfGWndiVNpBTA8/NKGviMWjeMzqHk8LdKsF2s450RjD4zJ9nmohAHDWIA5zR+LNy4mx0bJWZVZ3h5a392eOvM9jWV/F78fqCCSW1Urk8OpT0Xr/2UDW2e9GltTjBgzEYK2hOLUzW+Z5vx6zKn7tDZShwQkUbFXceTCe7f/HEdlqSpWokfWjU7IUzg98N6aE4BiMSy2b2psxvF4lNCPR5aXd1e+XD15+9TcgE9b/FVtcxUemRfp6En9EGm7pEWdmw1QemGs68eaFXrRwyuzBdDillSBnl+4n4B6TvxIyi9zVpJHmL3o5cTgMGhzI62x5mTdbeaP/g8KBCAkD1fNDqYuhqsRDP0o865wayajFoGR57y5RI/xpJ2iAICOZ1nJzglQb9CBz4t0LivWZDY2lHV3dG2OD8HYkkBXMnm59DXRU1lifhHZx1CHMkkvpbcNbX/7gnO9M2II+Uo2y55ld8szaDJ3xTU6HJhvBpb7shYSW6ySRec1qt9njty2+cqZJ82mBxVcKq0wt52KiLo0BbGXCf9wnCXCCdh3GLFiygl4uVv9z8ecWS18KTXjwnCbtoKha+MbQZXs87+3fSoW5vaUPUbQhhEnIqQBowbsC9egZlLGbPS4VQeUR+g9VwzI6Y9HdHIYO5KgjCl6i2u4GJ2yIAe7nFsiyT14v3kIv5uZkwl/ER3ypz2o/BuM9/cxSQF8bvI/c2ax1d0nftOKtNoH+nrnpu3TH0FnLWY9SuYzrktZJK9cgMZPZkt9OXSZoM8lXkQ6VXQ2xNjzI0qcK+KIcItXmxsYvLCzvt5lVYeXMK3mlqXN7lbWhHzqJIDtH9l1+2gCMdpLM5sg0UR6l7HNiQ6w17cveJc29UU3xGVL6jgood3NKv+BjuAnzIEewsm6cUuLlN3wv9iVw7+4TgUTXQ6M8hqDhY7eyTuyz2gW9pJ0ICD46qwgHiuDVRCW2deVSGHwr5rTy2U6/BM1TTwskBHEf2cvFYFzMpdx/mFDNuSRyAaxkZU8HSQiFqhr+/+/wCiU2iB4YlSZdgcROuBy2MPS8owsHFlKxbc0UAiaUQmYdmrw3TwTF4tph/mzP+DWORX5Pe/bGgAFkM9mq+tPacmiAjYHwhJ9PfMZZMZSlADg+J7O+zPj6rI9jSWA5RSfriN10g0sYDFKLfp0zmVF/rs8iaHHfC2/Q8odMYv1uLxX1FgMOVzZ7GLsGSH6brtioOdRFdTzFO8DCn46TlsZCEW1iDJF8A+f6K7eeQDIDseQazqnshYZ6iC+9Ydw925RfoxeNQS2ZYfy2xoHxDN2Gh+1M/fKQ8wKbOSKfkYoAArWcOx0eyaNbOXcyreXT9RB7Nn5KNDn4EEOID7g/0O/A1bZPYC2IKhS0Mq8XDb3OuyWClPgQaSNxzAgvjUjgAn7MturRps5rrP/w9sPuY6UPlkaw7Fx7EE3pE0GY9fA9YNzs8X1h+C2zxkMc2S3tiVhzv1PiLkfka9A6GtKpCmUCUQJeyrOJbJ88aV1dvUbdM6FnvKOIDfFzueKGMzVYcKTXUPiDoeBYK4WwEVqKuqGC/bmLCUoj8diUmSlZVstHtmfHAviE2Qnnmof4bv1l0FLyNlE08Co6s+8tjjWr6pLjNIHc6YFK68Fv6FM02Cmv5MF5P9pMw8SoDMWzEPDKLhL3MtxShoyMSTqdlm2egNB4XYIKyw/35VUmiHtZ1LhUGg1LNhFXJyj+hBp/jKtj+47BPOGVcrwhWSSKVfm6ynwHHg6/VOpLhK+o1xoerglbUL23BXpJ9BpmhEXOWZCMbMkTYmQJA8sf+Y6cI0lMnWCOMde2dcoJARfdSBYcmpIllsePC/Jr9k7+kPijXVck7oFYaiUe6VM6bZOXeVCR64YrfIVEs2qPXUph0lfW7wiNlg4mNhrGvw/fRSPISzGrHaAx2dIqERnED+uJy0mZUFIa05ev2rOl+dzun/tODjfEiO0htyKbqya8joVatcW1zppKKiLJDzm4uBrqOCB47bzfEfOaHu4NUSNxEin25IKmoPTIEjZfQipkXd2TEDDVIu6J61maeRJ4tDOpXM3cp/SoTyHdk6ikw/VXnrmQs22Y0w/+LuGtuiDKesjdXGAZ5zYQHE3UJ4tWzAps2Kseom1IaGTcDG4UZGKsPSupcgV27i6g75TR7rxSzY89LqIjN/a22kAkQGPj9Wf3NzpGlbFHGhGkTjLE4J78KDVwqiXa0K0ucgYC3pNQkwQHvhbpU+LaQqw1o7xUvu/YdelHZN0CughXyuhiN26Jb+aZ4+SeZPXn/e9XrclQ5NTGJlVGy9/+Cu1Q0rbHLpUKxb5N7GdwTotiSzUAM0JcMJjZ8Wbc0AxzYg6IDjn4N8g0Vb0XRP9MOukWdXPuCxZ9f18cCk83pxsow4pF8wL35CWrn+H5ZKuOpdxgeL6zG1qyD7FjLUcp4vgnf/cURLD9XTsY6aB7CvrSRV5e5uoav4zxdyHWFG4WKp66QQNRRgW8LGEHH3nFPZNNLIiRQI18rFSayd0BTPjrarD+a8JbPUttgsJIc3sWO8WbLIWAJ/HrCW0XwBNX5DysyMyGF87lun6epp6fZbsnjye6NDnYEEdID7g/8N/A1C1R4PrCHF0cuMD4gOKqqdgvcT7vC5RwcHFj/qbrLWNGXh5MMJGISUg8Bgb17sK1ox8X/FdTBZcI9YQK7Y/YnLZ6aohZLT4Dg5+AFWih/y87asIFMk9nbXJSyJF3EqS7xlnTZQHZalUjU5KDmrLsJlhr5xvXn7JJe9JpPwD/3WTnXraVI+dzrudE9tnFyASrcgNpFwmg9qQb1BPNdRNJN2kYfGPG8wlpTdG8hzCu6N1i5NCeZ1+xJO+qmVk0zE1AgXh6ejfrq8QlnHotw1RWlaKreIAqU8Boa3OcNj5trMtniY4Qx/mRISEcLLbW2nB5lDhtVx7WAc3NafEuBEkS82SW94O7En6yWP9FJTwxtxmYSJ5DP4oZ2DP5LvQ/fp24ypArOrNywiI0yMPG3z1sCAMg4qQgJL03aFnHta8UAgpipqH8DLZe4lkRiujLkqoHuJFsCFuoUWSvfBH6Nh6QR6ueND+Bqs574RvKyAlJT2z9r2baNgTkEyMmNadxMURyUqTkqtx1Kl3pHNlmC8hzYL2K+Xr36Ri7EiFNQmJHA7wU675mISppBu8EsJUbLCauwIIkZCWjk75wkdDpzOTASlPNBO5EqzM+jxVE6VIgJ7UDW9kpA5lQU/k/pNQ0qygG2r1/BEhgeK/w5qkCho2vt8MJiM/2rjqWNA61JfAtRRWP0+UqFjC/20twezgRenF8+4Zo0Rnb8g/1ID5yOoz9eIlu4z41jV/KI5d6g9UnPZHK1P8Kn6EB3gu9FIaHpoGh+sDtwoydgYhnfDCFqFiUP9U4BHaH813xIZb5ZYnYsW2uXMFztzLNtx4+UCVch7oOJ4ODpzIkCrmXMZ+qtSmSgrqYQB6WRfXlFAysUnLm0qUjVBC4Tz/xXNFqEPuyisY+uJgEyI94n1/WW46puSUcEJ/LIxE871JSExfl0ES6+WnHrz/6cZJP8neemtk9GiB6i5YenKf8OdGkMJjw1dTscWQ1AFDfHrQ6l8/wdicQHfkT9ugNzEQpOmXGyQWvg3dU+neLuvcM1yMQFHmvcic+iYjRlW82Amh0QPhizwfxBDQ6EFG08k0sa0fnA2PeJMll0vQcpWET4WfyCsXEgkjyjbuJ4r+UEbfa3sPnX4AGjy0c3L7V/xMR8e+X2XdxCVhluX1fenU2MoMpeq2FrudkE8BVjdrBLTehj2ayDN4n//VMbP/TDwO94LxZ9zFbCZOMYraXo=","2","blob:https://test12345.live/a25f50c0-a8a4-46f4-ab0e-58e4a20111c8"
"","","","","","survey-text","20","68530","0.0-20.0","st9bnekd8jlb58f","conditionC","5043","","","{""Q0"":""pp""}","",""
