"success","timeout","failed_images","failed_audio","failed_video","trial_type","trial_index","time_elapsed","internal_node_id","subject","audio_id","rt","device_id","view_history","stimulus","response","estimated_stimulus_onset"
"true","false","[]","[]","[]","preload","0","15241","0.0-0.0","rcf04qlzvy03k5j","rcf04qlzvy03k5j-2024-01-29-03-19-20","","","","","",""
"true","","","","","fullscreen","1","28786","0.0-1.0","rcf04qlzvy03k5j","rcf04qlzvy03k5j-2024-01-29-03-19-20","12445","","","","",""
"","","","","","initialize-microphone","2","60472","0.0-2.0","rcf04qlzvy03k5j","rcf04qlzvy03k5j-2024-01-29-03-19-20","","8986d73fbb8908b353b01b6481d8d1fd040d36345b5d12fa4bbf5311dfb3bcdc","","","",""
"","","","","","instructions","3","65143","0.0-3.0","rcf04qlzvy03k5j","rcf04qlzvy03k5j-2024-01-29-03-19-20","4670","","[{""page_index"":0,""viewing_time"":1375},{""page_index"":1,""viewing_time"":3293}]","","",""
"","","","","","image-button-response","4","69652","0.0-4.0-0.0","rcf04qlzvy03k5j","rcf04qlzvy03k5j-2024-01-29-03-19-20","null","","","images/instructions/timeline_0/1_Barck_Obama.png","null",""
"","","","","","image-button-response","5","72302","0.0-4.0-1.0","rcf04qlzvy03k5j","rcf04qlzvy03k5j-2024-01-29-03-19-20","2648","","","images/instructions/timeline_0/1_Barck_Obama.png","0",""
"","","","","","image-button-response","6","74109","0.0-4.0-2.0","rcf04qlzvy03k5j","rcf04qlzvy03k5j-2024-01-29-03-19-20","null","","","[]","null",""
"","","","","","image-button-response","7","78620","0.0-4.0-0.1","rcf04qlzvy03k5j","rcf04qlzvy03k5j-2024-01-29-03-19-20","null","","","images/instructions/timeline_0/2_Leonardo_DiCaprio.png","null",""
"","","","","","image-button-response","8","79391","0.0-4.0-1.1","rcf04qlzvy03k5j","rcf04qlzvy03k5j-2024-01-29-03-19-20","769","","","images/instructions/timeline_0/2_Leonardo_DiCaprio.png","1",""
"","","","","","image-button-response","9","81196","0.0-4.0-2.1","rcf04qlzvy03k5j","rcf04qlzvy03k5j-2024-01-29-03-19-20","null","","","[]","null",""
"","","","","","image-button-response","10","85700","0.0-4.0-0.2","rcf04qlzvy03k5j","rcf04qlzvy03k5j-2024-01-29-03-19-20","null","","","images/instructions/timeline_0/3_Beyonce.png","null",""
"","","","","","image-button-response","11","86468","0.0-4.0-1.2","rcf04qlzvy03k5j","rcf04qlzvy03k5j-2024-01-29-03-19-20","766","","","images/instructions/timeline_0/3_Beyonce.png","0",""
"","","","","","image-button-response","12","88276","0.0-4.0-2.2","rcf04qlzvy03k5j","rcf04qlzvy03k5j-2024-01-29-03-19-20","null","","","[]","null",""
"","","","","","instructions","13","122354","0.0-5.0","rcf04qlzvy03k5j","rcf04qlzvy03k5j-2024-01-29-03-19-20","34075","","[{""page_index"":0,""viewing_time"":33014},{""page_index"":1,""viewing_time"":1061}]","","",""
"","","","","","html-audio-response","14","165479","0.0-6.0","rcf04qlzvy03k5j","rcf04qlzvy03k5j-2024-01-29-03-19-20","4527","","","<span style=""color: red; font-size: 24px""> NOW RECORDING</span>
        <p>Please say out loud the names of the celebrities you saw. The names can be said in any order.</p>","GkXfo59ChoEBQveBAULygQRC84EIQoKEd2VibUKHgQRChYECGFOAZwH/////////FUmpZpkq17GDD0JATYCGQ2hyb21lV0GGQ2hyb21lFlSua7+uvdeBAXPFh4rhLGF6IQeDgQKGhkFfT1BVU2Oik09wdXNIZWFkAQEAAIC7AAAAAADhjbWERzuAAJ+BAWJkgSAfQ7Z1Af/////////ngQCjQVOBAACAe4NsZwKIHw6pcIru5HKSpVlmhHh1zy+3erOmIKpW3gyVG83QnsbucrwucKqUaGfRl90eXj8ojofegj7rl4yWSgMLUpXdo7AZpLzj1jGuhhr0d/9BbP1LTpEXWTXmiI1OTSEXl/g32HHy9tcIZymPwRiUgFAOCiNrnnGJkzHnTpcf1D3b5xCp2RnM72YCXRpaifdPVoPLaZequyRD3b4BC5VfdNzR4ZUXVn8K35lDuuwWmEQCuGdc8ZhSjBiiJhDlhlZsAYTagVPbhhc4acXjkIcLorVDAlaGslENkKY3AyC/2YYxcfFIbWPn2IsTud4ZuCJ9DhjeHmFBd4OR0ir1VmRTqRLo0mCe1BY2Rb7WdbHu+WgUPc+2B71DkKdJ/T99vHto1yVAnTEAW+0BkVYHySaK2cIfqm0s9U6H6Cpb9QeuD8E2jj58o15Klhj0k1+jQYWBADuAe4N+eIBV2KVnj0WP/djB7cgPPCGxs3tfD0HzRvY5nDyJW7dTkbtPo48N03d5avyyRosMCxo45Dg7ocnKoj2xCz1bC73Am0EZ+KgpdUZA6+nLTGraY3v76wBFuUlonckM7lABDYaav7FhmHrdSPxVdmdSmYvl9QfMJzpvI/vEoAbb0YdHfux4cEMCvAc6ByUNm0hs9PoJnWvUjnwMWkMxEFUGMI0ST39sbKZq75ltbHWJO8IHnuYI9cgl2jtGZw5Dy6Eq+upE0GgCY+JTG8pn2ljom9sbetpsoAObYMcQyfaHTGIqjEsKg83yZYYGqecnD9GbNAEa11IuEJkKVNPb9cLDjw80PM/GTSNa0yJ6ZCPiVW7RealHcVPSfmk0akRR575RExI2czyc0leqJkdB7VHwV2JdfOyGF00hbuqpwlNQ3AYNrAC5g9VETPltJ4W+gJVjOSZs1XEZJQa0wjbl3Zu4CsSRxsU46TkhNZtBCrWpkY2nn87xM707CzGs5lTWgaNBf4EAd4B7g4SCmT4h2iPAjeE21bMuZbXQ07Tw69KjtY3EL24sN3py4HSPWtQnJ6/TOEKX/z2SQIkptCe6FBBKi312vInT5Q7oqSF4eI1HI/30CSrsZiwiwkkwqxLSab6xjzLsyQMV5uH5/071RXZ+aGy5yYocRkAcaN1YEeI02wTw4Bm32AENjkcnMKsGgGrj6YRKat7kHKimPE5uLJcwcHqnludC/vNRpBerKlX7gli6cIhACt5ZAVDl7uztrKlJ/Xv2kIof/wYs5YTDiGzuM2c+dxtd6CWzhKuNFakiporzvedq3rXAievxBcnwk6KNY/FRJG6Q6mL5mYs/2yDrXev5A3ai/HXvvgAKIl5iA4BnMZgdH/DxVYiC7VGLhJmlZhWOeerhy/0Sxu3OmN6D2/1g8/hF+YXJv2wQKEal+yWOfkJN3bwRUD9xCR2mGPJvN+yxTcIHyBg1cRhIziYcROZrJ5PpIFk5XYQcT+/jS48Oim52i8sfLRFvS/UyzBLDo0FUgQCzgHuDdmuHHycTbZ4rtwQBrq1jaE9CRIRkgBi384rYxLa09/xRb3BR8DvaiEOumx/sFm2CK1mUaEavWvGzNNhbQtNDJ8bTTcNfc6Qu1XKyj29NBugSM8TYA4VWCGHpLYJamFW2DTU1DJh4x7qQ63H2xXWqqmbY2weOCUXHHuJwByIVCfjZPX07n4UtARm6ynFBZla87IOispK56WQjPR/nUIEow9XaUOnVewnJX9RQYRQwWghC2VUlW0ZitEFdVUpacSeGF22dxpY3zdCjdJVlIevWFFoMCQLNDfGAGeRbFUMIsizXfLkbsCNTlDEcKm7UMgyVcFQ7WyApG2FeIANwS6zKlAnsnrz2zXxCBsycdupqIJYqqabFV/yBU4WfuqOWf8FSX+nbXuAE1wXFs2aevIKwoy91fHRsIcbbGQZ0AAjL3mApXA2WygN9mV6oOuVD76NBT4EA74B7g3ZrhtOr4j3ns9XgbSaVX8BS95gU1rFQXgMLl037K8zTxL6KG06yJ1csI9WvN1M3UioS6h1Tn+NA71Ge/Av4X/6stH8qZImEX1S000HVx+VVyf+JfTePa13k1a9DTG6biTI6bV9njsMO9yaUxiinOnUXbZPzKul0sRqtJbrLjl5Ff+gbG6yffO//+UkczBYlguN2e9j6PqU5x8SA/xXsyb8V/nrQ3bJMYN3rg68AQ2cvok5pRdhN5FJW2jnq7OXV73HeLFzjcrcICd6H6/6Y91CD7D5rGH6JPLslRyvdu6oaaHwmGAafk7d/UZ0HtW8lHeo/koZI9rz5in3cMC6DACFLqY35itPIBcMK7V/Hyp6Yxl4OChFH7HofPJECF93rSf0mteODzmNzBVjQ+sjkgY6QdvdoA7iOtMroMvih7AhxZTfemUB0IJu2o0E6gQErgHuDZmQVRSwdireQHS773jqoeCFUjcQPfAJ3GsAzzqYeyL5D6gTQmYpnyIew+AN8uz0qOhheJt65nqGJlvjx+ZoLr7s0T4DvmuZb8T993LYcS1N7m7L9CPjlFi/iFE9fD2K9OT/D02PWK+cSJZd0WKSQmY/zpz1DQDg5a6Q7Bj4HV/Xh7Ikd4BJAPcgWzho43ImRXqIJdpdsTW6vKHh9EqYhW3T4P57oGQILxAEzEtRnhqw8cw1oFVFLnm4gzUmXyQVQQ9t7+xjErWRySEukEiBr4gSSpLCTyfbatW45ZR4Abn/Naoxn95pKgJBRLlp3ufux6oXsq07qdquDPkdHuvFshAHiROrPaqG6Cimc9GGdcOMvnBEo3pDmfs7PVrvRgZL4EP733uLlMC3PBkvSXZHnTl9Ba1WjQT2BAWeAe4NlaRIgcjQ9iaWscomqt2zEel5nZYTZazOCfdqmbpnQ9Xg8Kk8x/G06Yn3jiSbWAKIGF2AOB5ln0uIJiIfoaxw7lvigK9UcWH6Gn2DvEupHuXy9kguO9Xr1hfKCPKJpaxn3smfM4/QfEiByECnKnWzCTc9NBDZytKUUeUJHIxWC6PExUk0+7kyGdGt2V9TdrjcisF8/A4vJDiDR3KpnvKG9HNxYoQ8j179OWrA1ebZ2xgx/fS2NRFEHP+obiq2YeZZ1pJfflOaq5ryPlPERlprmEgy0FCIxeabPJiEJU7RKl8xokwZpNVgocLR8Z/2ro26e+MR50RlrgiMWBGvI/oJP9O6TDBAD8ilANC2KCq1NLWpVX4g3O3nGZa2abE9c8MZgGyDDA5Zk1mjn1xPQuOp2UN7U9lNL46NBOYEBo4B7g2ZmEht33KpQz9UKD5L5BA5xjR3UK2n7EBfeEyLTTjyiYDkqUaM8vfONbd3xJNimNk9/9SaRICW14qhxbq3Fer4L2fF37wyiv/LxyrxD0bpKu3Q1QfLKskx7AKvRfoww8DER+QRbIAtmAU/yrqqJXfN7xpKgvhmTgWjdNDjXBXsW30X2vWCT9a7lxN1zL+J3dY8EEZW/aaaV6WobkkGQPGsot8rXXEqc/+D3KdSYn+WzRbymNtoNtnzDoWfR7avNk2Udp3g2Vy3MTopje9uUEjow+YsbExfVxvrz2PwrhF5X8ZDD7Y4UYb134i4DDATvbN/IaS9mxTLwL5M1tyJ0SgZIOI5qdWicbpwuvPMcyd1SR1b1/eK8iAtn2BVZBf4zHDGKK2KqDnAYuqo0XaPy7Osccl2jQVKBAd+Ae4NocA7pgIT62Ygpq6TUfdh++GB68IR+9L7zERTqFe7TU1B06XaghgQwereIRL+4TBDcxYtg/ify8jApsDVI+0KrzRue+2Rk6bVdoMnRDFAoo6B+HFQxeZbH10ANKPLO/hUfp3rVP4CglfuXDxUCPbJ1JWnP2XobffQqIaH0iL5Srk3EPMGik5ynu9jqwPYgcyRqRUbSchuPSf5QtFJiGawM0AeW6ZLapodFoAEH7/SPIUmg95r9UcWLLaWX3Z0g+tix4rEOLBbMJph8D+97peepJ7TiA9vEzwoQHg9LvvbN85oqvj/0ERe6Ot1/246Cpv5vSZzWgihZwJo8iM0wDpbmi3G9dMzitOXdauAm5jhIU63yO/K/Vs+9zBm2JBb0/MbPWCwFApGCfTbq0SgLzNG9gM/iGdlJVwlH3qA721Nj4NetcCwO2VBkkhALZaNBOYECG4B7g2dkEikxiiq891CvagMNsZU2e+nVYPfd/U6mcmDurxQ3hYIoBgbpb43i+GSGDPXQceqG/fcf8KzjBG+VY9qzVqyh6inzgw9th1vOd0N34c7wKFYlDfgWsp6W2EbmEIaNBFQVCjKXiTiilhIP1Dhx0PQfJvHQmSO7KCJu0zvAGHjd0yrpLWLKX0QyirfNktYpJhQZBz9pu1n6FVKA25Tv3zMsjBFsmDUIna/3/+HK9Yurd3Qg1zJ+3EyxYx4bFUcDs1o9Trs+jnmZx2PCYx4SGhlQeJyPkpDMShTuh+7LbHkTOVzyrOP5uysA1p7WxhMrb2uyASwDXxc9+EqaHEZ6FoQajrm9Ug31G2Mqxv5YT+dvJcoZo54LQLbhJAK+bdkLkGrwhPnevFkyowC4+WU1r9iKy9SjQUGBAleAe4NnZg+Mc0OO3KUmGbIus8BPbLzz/KgzQyIXJkCgaNiDq4HdQ0vP282OJmuW6CofsR8DQmHWewT1Mdre6U7iwUxYSo1HjAz1MieIT0VGAl4tsSQ45JvcmYCjSYR56A4ZatrD9yMQ7Z1uW14O9BPKVMk1h1nWJGjGYO+oX6yJRCFIr58zjelAiYMX/nnSyHrwGAMZNQZDIwsDq2H9JjmDCNMG65QTICnklB02qYdf6PyG1yxMjdv6yQ3iYQ519+pv48YiTkhnuqhnyDeTSpb0gt4O9shO6t5i/N4xpm2RcNIu59yGaCHl3MZUgE5iBWch8TviBBvWd+7kwvTwc8AydGujGIbGVFugCvBO/zpOdFHCwr1j+NyrKPrSjWt+o9kOw2IorVudsrR2zGiockkxoy1Bt5hmN95B0Fqi+6WjQViBApOAe4Nzbw8yV41iJXNJPJo18jIh1n5hGngegtHhcT53rKFvHaI1f+uiD0MxRHzqCl6iWdatg9bmd2aqdwiv26I2qrBXWtjm8fBk8yGgp636G+tzkLhuO+CHxZyS5ZHjkQKslyqbOdBTTynRcC4ev+Kw23xQMuYMU5MPjJlH+aw+0AAWY+krDcDgr33y9vwlIxFa8E62oOnzJtS0xd3NCMKXZz1nZdp6BIxbvHSgHHnzb2TYyxGBOpKfhpfk7ce6ay8w15wlznkNNFTnjgvjDbKeOjou+Ljtt8BvV50f0c7bc2Sz+131ap4SEFNVDV96iqYv2Btqboo1zO30hKyn9nZnzh7ugF9zbMGQL+/x3+Un3bxdzFbgxHNHzfbo6785EvwyZKhtkSqIE6EkE9sj5FqkFL7PtKfBaUAETxYTBL64jQIkcmYMEZ8/FfHpR33oubFIoCerVqNBOIECz4B7g2tiEg9FnGrSgNZSB2y2Exfj7dM1llcxFM9B6cyzyX5a/U867uC8tUpbeB7VngdgYq8+3YxwwND0uFructsrRda61OhMrMyGOx/03VBuyxMBQUS5Wk1Og539w6Mooyc5tbCTz6Ei+tVYANFSatwSFINyOrMnSNDDbJr4p0MNj+v1OA6ItpxAelS5Sw+1BEfc4M6F4YgUOj+HFOFuSYqY79g6xF3F355x2wNKWyCfOlH1lsMW8Eve1eQG+1uG1v8cVHjZ6GyaFKuhNGWEGBGDZRI7NAiUtjb3AT3aaNgUPpF4pzcdr6L4JqJgjCFd81naQUkVt509pXmou9l9lkAatg3VcDgMWGbDP91wvjXvA0LNKKzbgUwiwRkKROW+dXKxfoSdMagDDt00cV4gqSZuXVuql6NBNoEDC4B7g2JoEegAOVY0qUDcVOjAqTwKOUzriCE+iWRH74hOgy/iK3DVeiyLMXrhL4lHfwX0biYd4uMRn3KQHYakPbEZj49CdkinfaNL+R7fOTQI1o+Lzdhyn1vUN0CevaKKp2r1pSzyA10O9Jw9CkNJKjC35dNn+JTN4iDOnBsyTH3LnRHJTdyJ5l8l53ryNtLpMIr9XmnuGKXIT6+5+wZHbVQRHySWzoizVNjOag3ovYN2jgSGuwbjyJbt8lme+Zh/4MX1aLGNPUjd7F/vkF0zeADx8tpJWqlQgBHaAVo4XP6aja5n8VH2o5yCEzBttSIGzeYm4yzqtNCe79I1w45lG5Pn8B5iRCquRAViHurkS82/tzsy8coMWkTuyKpFpYv6cZZl31eBhPIQRW8HwydHP5O860yjQT6BA0eAe4NnaQ7qDU8k2YQ3xL/V+jdoPpHwlOt7dfV1B9VaLwPF4rfULLV7LWm6tbfuZACj45KcZi6s1/k0neXrO1yPqpqwkaRs6WU7rc3sNqkJc0qPfbyW1Mi6sBo/8GU7/3+jY5QrJf6GZhcQEpcO5x/fc49wT5FEOlMPPrEiTLan70ojNvthGe+6cmQkeJrNX2t6uPvpvxqpmIOyb3dZeemYkv2tFkretSz4RH+dbq0si+7ixwDFdKI/84ajVR7zF8mva6omTMg7l4vdFlN4DdK5uTWNayUO6mniEVorN5UCvYJYBe5jReVdfQAVZPAYKbXcouwOkUrAqUDcEBRUU6NE7xjFUFH8UAVrRlc+jzTgZq5D1HaX3Y1hZeFzYkW+aYACIg7HjAkvWdbTskU9BsuN0QBj2ONpT+Jjcx2jQYSBA4OAe4N3hIAWCh+1ZHqEcle8DgNE8i7DcNfeJg6ReoKUfyIy3CdZuTM3VGRFW4M56dkGHC8HwHR7/WfTGlR8xQOnH0zmMeCh+cEzcv5UqNlYfxT/tehmQhppKcbQ/kR5gozBCLjeZGCB0gdGg5T7OC41CWQG6igj8S3rd7tWgHAS6Fz+jLOdDvD5loptxWubk+911pIVssMe1te6Ilix18+61fa0bVR2GOpsv/g1nOFCHAz2KM9W9Szsc5WxTgFxkGVoMwLV+z3oj6so20Gf0WKMMB4BPWf/876qSqy66C2aRAd1BSHGUhOO3UvqV2gt65IqJwOL2vgz8Y62WpwrpcS7nZ1TzU0uYYMhEz1UhwcoSM/qCkKqn/IM/bJWvvMJMRADIaKP0A1ezfY/KtdAd6T1MXTfCQRWcH4pSx1pbpmfFTVBrvR22Jra8SbwlbfgUUj/DI+8i9JyltC3vsFkRvEf5RC/sNb5aL+lbPHOWCMAlAzNeFIV8xvA2pP2RbL2/mBKo0GMgQO/gHuDgX+gZKZVjJ80lbjjnvMiXV+ZpupavFSz1mDH4t7Is3UBF075oL/10MYV5HlU1EUcXVzM/kIyQi6sU2jkLCFcsFz4Mbk3uwiPfHz1GD8cCHFT0JNLkzLlIHyMYtH+9EOJQFBD+Xx/jBKiKNqBZ3/r1exTCFHY4UaePp9x4Ry2jSWem8Kiu/i6TMMf10+SXKTcpjQOvaLUpeOJtKx+2kf4Jc+lVmvoXoEP6dC2sU09E5Iv/xcuJ1NMX35iAsMTBh9iRPMIUmdvsGhUf4a4PkLM0vtZywvIPAo9RkDAEzud3KwghnAe140WOJL3JhKMwav/+QHvithKqf+7NMVQFfUdfP61pflAuYt+o0+VBmRVsTNXlv4wEgSby+TeR4T0GqV+8m48qMmWl8yV2avNS2gSP+o1o35vntHKVk7QPJLdmt0l338i1phhkuiGaPsvp+Xvb5XsYJuNijjmpURcQaL6I75uiaBACHs3P3CWLOWi44gKkEhWRSMah1GIj1SWO4/Q1mjtJodQo0GNgQP7gHuDfoKj36RYPU5AjY3f5rm7aLa7FWX3EwegTkT9kzMmnfZuM1qd+GI89vwc7CogxpsifyqLf6iL0Nw7ejbWQx+25+Dwsp6uHl8EN8hgjuiSxJ4jjMg6j+wW8vIDrbTUf6uUIClUgquRU08voPfrEocWU8HNnVFSomfsBHkk8CAaJwqjzt/qAXnxyVXbmHseIQdtt4u1Z+iqjLH/YlHqviXYGEMApGezBkGrc/2UVlmeDUZor2I50Y7aekewUnU4JjNKmUYxFwOfuHccEPoO3JWE5DuyP+RgFr2sSkFtnoZCwRxCp3dYMEaJ2ucIHz29wnvpzRHgZJaPjED/XeBErXCopV4zo5+zH44GEuwjHUJWbcpDJKxle5Ff5YeIet5qKtdciTqWsFuogeyIPXiO5NhtsNKIePqPMzVjInA3FidDgox1uqYbcUY4RFGiFNrkjVRtoCnOh4k9hFb5Zc5Qn+cOMOllE63etLujh0RSiP2eQJB80R28wxXKFt/Lv8ZIm7gFf9jZTRXEVKNBkoEEN4B7g4eEoM+q/Cas6yXysitl6jsSLM/BKLw7snQwZOYS0niS+fX43CNYPOtQmVrafQmcwWpMly/JUoE78Y7D2CYP2+PVWVB3lWEKUJ9493yyHALASH+jlFLoWA8ah7+88zmwSL6qyqsSg6hbLe8LlmxhpBIwGrGHORQgmScu6E7b8V8oEIYVou1yKxClnGwjB08Zdfuq8zGuDItxTFfPP4RMW3hPWXcQd4HTGBpa+iQlKJwftPdAIzYSvS8ECvIuzeRxQE+tiQuBr2XA7dyIP2jLV/kaulD/OvA53ZpptTQsbtwdlcWebZdFl+z25mhHgvZ7o2X1GP876yAyxMhLvaxLk4UwImUXt97HMNVuoLaKiSWFWd827RArkmOk6NHIXYjFRwfNCRhRvBw0CcSZEBvy83txCDN7R5+SUrQwu27bbuPib73VnviXYcvzNPVva9uOqdvj8ImQi5ARh4RrSMcVbYiuUfTKxGex7HpensqjQEh22TimuxqMCYgE32IDt7a7Bc8AuPvFTj/czJz6kaNBnoEEc4B7g4CIiMa+v/mXAaUYDfgZyibsHEes+aqlo6H5b7CYhu4ZPOZ06aJnbkRFFuO39/yhKJ+wRJAazgSaLF7NywS5V2dQDAto0YQ39v26qFvfOR9ddlGWcXb2j9FZrO6g+BgbBzw7TQhkDh8L8rQXf+yrA1TSs0RplcImlxbUu/bOzVxgPoCAuwj67wlztOrM4KbXQTcA4JVnbkApy2j2DT/p4DQGM7Uz+mIEgHmnrkXEvYkLMt2e5MgxE3oPnu0bXnfeKIA9TeSmXpeMjyiLoYCKpGzRsHoOGmlw1eSuxBB/lHBYdqiYyJBls4RqEr4zTsFX0zmMtHOd6ZThU8YIgIi2y+xRXhqnihjQYtlDioc2zwZWIJVUt6f0C+banqr3r0q5vMAmerPH/Ew+vu5olnJsYgBm5K9Lj9D6xV94AotZ5j1bspDvl+C179TtYoOKyly185UqAvim1ehs1s5pTHRpNx8gt70dRQg0NE1N2UKK6VJunh4fTtlZtp2kbQszRSptsTzC8u8IP/J6XUwhP4Qxonrb5Wprr6X0ZaNBnYEEr4B7g4WKgZdQEOxQOza8s45gAVRaDckMU2dPXcHFhQgChvmvfvJ9QkW2/+pHgtq+je8aHqJ51COEeVpUa6fRHzCwPqbbLgjCZbJGu/0tycBb5F1YiNMS8s4M1qh8IgaVfOw8joPP+c8iHGBYi+syNy+AAQUMUMrKCXWJogm5l5I9UbvaGwt8CtRNHJ6k0vQoybhZJPhenW6851W5DBNgvlkjWE2VwPtWortuvOSP3OVG3UxbXl2CTzm48iBRjxiO/9e+glauLfHGgeK0bqIryYDAkg5mBW5S1lVlDTq48KxlcuWximy54Oaa/APkPBgoMpPt3xZkxgoj6/43mt6Ootk2WfWPFhpgnDFZKdUZrEzGJNd6SZ6kz/RNL0bWwHYcv1ICEpfyHtQLHaBSC613cHAvuZANStqJUzMExGJWgUJsJhQwrsyR1wlw34i+syy82RF0zec5rrgoDErBiGOUPV8NZZ/lGYSfCnBmdJaeBTx55ugdY5d7Wtu3LppYmlu6ymCpdjzO38mjDsVYBnXlAEi4whvp+8nSU8YLo0GfgQTrgHuDi4ifsyqkkCIktJ0/hrNR7iWF30vWa3gu5XW5x9UDh5zv96JHkdqI3UoFyu9LP49+Vl8KN2E1C52C1hd6mZlEji9wzRAke3aCA3iaUzUxpXRDe3t1ausYl69Y/mtXLImmSsZIUMw2G0CH9+ICw+e7NTLGNI1Wi2huebf4UvLwjFxsnrxqHcAvpx79Gvd8m/PhlA0dA4YyObABueMSZnqEepmcZt7KJBkYIsbtfL5+cw8izAA+HWqEw/gOS5OT+IyeKYyOP4YsXVX1nJ2rPQPYJfiZEDNOLoghBiUjp8FIF/X2cH+tLapcXFsk7ubJOOQiy+G3guLsX6UywzXxljwcODlfS/2FPL9AnZ5tMRPSJxev5+bjFJsUNlwpYy3BHiTCDnlabz8JwejAS+rX235vjnw4DZHWI4Dvf+Iac2HhQ3NTJoKD1OzgqSuU/VDlHVKC6V/oOz9PSF3JCbKQbFVTAPoryjAY0elS8qjTTP3hgI2lEuFxaTFNK1N5YPUF1Epa6Mcjf8PdichHXnsoFVH7yXAqygqNrpwiCqNBiYEFJ4B7g4mDml3N2UeC6VV7av4usBKxXlsDipbIOELcGPDeweNEBMWG/VoPLyDG0+IxlWBYnp4Q+rQTrq9XZfToj+wT/DB3euzB8vp0PVgpuWF0kM2zKAnk7cIHPuCxUScAaannQhD2NrThsMQnzKqkU9IaeWyNyAQWJUjPeF7rUcVXktv1Y96IzH6eIyNYaVmArYdhHqV0ZW5p4soTn8m8gnjzXOKd+nnFZJdaJP3YdEAeoUF5bVKGuKphdNWZnuP8n9maM7L7IkqskRFcSLLzEFAsA9WqghfORPyulpMORlvMyAwDOZNEzOBNIPxxqyCCrsHJtUvi8/mn9PDqUkKeX+48VrGlWlBzByolXaAyvfCPQof4TPIybfZDo0a/eHvj71HsWeq3otQlwXu13DHHigUEPpJJe4hojCdNv9hhH0SMoQdg4I5NPOGhnNnPu8A5yb1jO0ux7vRNE0XwD7L3sl9xFqnAQCbS4FagXrrJJxmPouPfHRluTFuRT0+GzBxccpjufrC2iaNBgYEFY4B7g4B5h/8XtFR01YDhGsHGzgCogdBWqodjdmVcxv/tEt6KPREfdyB0KyPLT7Mmpq4XAysEZPjkv/OD8pYzc71M2a26yyhtf242eqpJNUQa2QW5ADB3K5FQ+nNLREV0WhdSbZfMXRADHzd4Gctgyl+iK0cNxjKb5OxDyijEKudbf9h9XTGBpemcDFLs/HOvZKg6sQQQ/8ESUoijCaoiVACqgWMr21yR0k+NaplsZqSaGV5TAFmixkrxI8O/a/Me0dg1qwBkDCqccQHd++2VzA3UWnkf5yZVLDk72u9d1GoRyV8DKz9iaSdKfrg3D35D/FEgnph1BfKtZl9yLLPSgfIN5VrcwMZo1NEu3sXLZeqX5APxknrNukIVFAG37vTrFmjUNF65nccZWFGn7Lweq7wtbxnaNQvTifnkF35y6vt2vMupT3HTRJUHN9Hee4m0AGAnzQQv2+gNuKD24kOjTEt1uCmzCSUqFOSGf+/+fG1HUEExWkGM3Gbk7YahnAqjQZWBBZ+Ae4N4iKJ2RkWahWIeNogQQ1p6phdY/VrcJz2HAK2plYncD7g5NFgUSWREkdhF/EGMFmFJ1WVLwpafw2b4dedCAn0+leEkgXA44ow2KLQFQbLx2PMo2GOiOl1JYu4GzYOmLFDMM1qTcibfWD558xEppQojTqwuWbXDrCZwNKKXQh/ErjosvXm5bhKpL5pUykn68Z0CQyn8RIW1KMwt7SFaOAuXhjKsc7SUk5hR+lSfRnFpJhyiR0aCFQtpksJHJ+R5wcsaGYbyfRanMf2K41jrqCf6sfXW8mcGU1sYEBm5kPLp0wR4XwkWuvZCqGFY851LriZVfABDUmnqw5T1n9dRKKyF9sCiI4ZNsJHkmK9QSmiTK53gUlMmEmsLzpD5yVGNVIcqSKrWndk3drBncUk4489lkAgwe8T+T+WV1mOInB/nlBqMenXaES1UJIVTZDifE9H2uWvL8iylOBvxJRkvn/1HUwPg9xzuY9wWO8i2VxdnD9/0/Hbu9hA7G4Bw/1inJ5+uc3sKAcxgqD22H+HZkkajQY+BBduAe4OGh6GtctAXlnDUtHACXkMjvo0EdYqB5pfvBvvkUjnHyoePuQbhhDNrjQXMkgz4mpSNk7isylElJDHL6tA60L0hWM7TwD54BCeY7wM3QXfhBJKgFuANqn8Jvn6G2xipPyD+eDEVYqAPUMMJXCNC1Su8FoWRPZHRBZXbij1CiUihrZ6rmt7cY566pSkf5rsFaxEItP14fGdrx22iajenDuyfOCx37VH9uSIABIbRPk30q0KwyAE7WE8KuK3zxcYrwCWpowHshwh57GhOtjH62rslYEVLLZoRJWP3RLNwmGtNpMf3fr6wnOkMf4JpFcvbDjiLq1g7W1o3kIPvj+lPgU3Bm3JqQrH7WaLpSsIAKoKHpSXgtyLC0MAMbiSIDinFUp76IQqKU8ZUVUzstdQ92sGH2G9e3dGaG/n6ZrpdS7LKN7ct9GaXZc6PQkRf8GsARH5FPtm1ltS34v5YxnHK0YD8crWa4F6qHWVVGG691YNkW/Ile59KSkdcERfSKCnla0Puv0zZGPvDpDajQYOBBheAe4N9e6dlCGSpzGR5q8lmw99na8yvm9jkK+K0F9BvMYipq1acdrSCauZ/82T9TmfLk0OY6eRG525aY3InV3iZ8qU5by2nhBvrjVU9f1iAlbA0fMuJW2j2FhVEVuOU5T5YkoUnyCxZCnGHGwXcZkN3TxZV8WqklY7NZj/b8V9oak9gp7IxKopYkelixNPE4d4wCrhhlfZgeuCDm7T8BicA3Psly+o9+gvrD0oSKRM/s7P8HzjuMaVQkgikWX+lkiNvgWhIn0eCYiyz0ZQ63xAVrjw2meDJMoajKuPG60qpAUgbF/4zYqAeT8B/PIWjuVl5H7jhz9OL2lxY/Etapi3tzLuq9ClZCKjHLhrEUPpvP4ISVsJIsYtAC8mmcwc3J6hBS+mWJjrKgvSL/5gOWO4x3CLbK3YML15742byF359ljTm7KWetx+w6MXG6mMMm0tF07wWoTX+4MbTmBPV5u+a5cAZF+bmJs7TlDfOKjOdMEr3nEWeQiOIKMYddHYegxKjQZGBBlOAe4OJgKOO6B9rS0DbBT4FmTMEhuP1vytM19dR03PRE2qn9YikgLyP6j8qLnjHk/or96TAEXye/xRrwf99IbrGRstFP7HwW0Gj2qaQ00rW2gUfSCZpVfuVG5SSGZyt2zWOxD+7W08139Co3fGsEFdLpRf6NVtSXixnTuktGRA22RiynGb/W6QOqdZS3wlZn8H8XfpxAvQpHqYzHrerCaW6eauTL5zh0jZwbtqYkMTYxiiOAHRkvxHgChO8dauAxbRnKjMxEwCdwM/qB7fkwyrDDvi2/CVeJj/xn5IVyPKx28z/vGewfkMrmStHtQRP/RhwLNOa54z1PECgO9a0bUzsQ9P/lGGkTrsMKxGO8oOekWU4DsdwIrH2uWCZZqNExq+MtWRzWra3T54HED0VXqjxq9vsH7V2GIeO7kxmIKV4j0gWKgo0Y7nipDtVzax72eLcWUlk7FrM6nTRdpgFS1E5yQeefqRqHgWXMJqC4Onbf8kXi503n/aM2yLkUvwxsNafvIkTJivkcSkgg9oB0aNBnoEGj4B7g4WQnJwn67FTafcpThnTusm9TkPBGDWFMV1a/9Z/JCaMj0i6lemB9x5kfR9QVR62G1/ZAADyI+Whc545g9lN5fQirVsKUyQ/2NsRZjGPii1Qd8P6rzg0HvIP+rqXaLCnxruYSg3o1zT5C6RdSVvfxOMJvZn3wL64yypGKlJ94uTF3r5q6mkZg58ueH4kff7NBdKjgFPJtOvxlD/dogneFtUah1dGW3/fG0wfx3FmWA/SXIVLo+vQfDmsn4EppXDGMjByTybbLQp0DEIgGi7JV+A6i61EDAB2Jc/y8RgCqyhVROBVI2OUGP4SwHsycSAhssyT6krTNNtr9qTYdILk6BxT2lu7dOcUivJMGMylLd/ajnCr9bKrFqPGGsDpUqLqzZ7nnCZtc9zgpmJFs/7e1ep8RA5/g2MgpVEKF+cCrO1GiOlh/YLt4JRmQ5I6Kx5W1n0XFwxTdQyVwJtzKmynZhLNgbavoN/T9+iy00ndq3wgPh0U34JHH4ykFpFrltpfjpQoIGp9WOMpUSMF4GMYsAdjcsyx/wmrHKNBfYEGy4B7g3h9pPgty1lzGJkAV9MhZ03x72/EVYgzeBNHtYrSQjMsbxeESpXdSATqVVdSptZf3DfDzwTKNHN+2hQwWhfAfajbdcTSUwEgjx2qBRVjTYLRBiGXrbyqJz8PFekcYcXaGJhtKHw5lfbwJn57LPK6UeMZk0/VNLYs9jaqo2gvenW3bS1fH1OuQLsxLELjhnZ16HVSY03lqLaCH5Oct1rN4HyMldU56OCEpeeNtykpeDWPqgfkIkK3eF05MzcaPlOvgkBXPQ3F4wUF7/oKdN+4sSd6FO5PlIuzsVCzWvH9g6jRguYLUZQAm0SyRskrcXhYVw0h1a92tlmhIrnQCwyLyzGjcBBfrufsBm4lto5ezjlV59drHo254RBxa84AoB4AWnypHujPosP1GwRnJs6D7BzzPDzTuS+aKel+2G2e2El9x+6TesorFf7z3BfnHq/cfZtdzL+Si3n/QacxbzmbP3YCXfMlnIyPt0ucpuls3aD5IqVESl8wBKNBl4EHB4B7g4KFn5hZEeYKszYYlMsLmd2DOhkmWhLRWYZHd3rCu+hBU0aKAKIbFBcwGkwwlRCM6k39vj2loeN7Lqj2E2D9QNIaVk/KyADAVVqt/eodLje1/aqExXrbR/cx2iNknVj7ZYaNsnPn3eys5VdhUOAaXR+fM/SWtk0Gx7l9ByvUO3xjIQxawZ4/Umaw+AsKNJEzieaykUge3wEgsCT4GKpeEn0BEae3qXKcsHXypiEAC3tt9kAvB178uTH149U2S1KXQEtjDSLM6MSfwDrn6B4/qJIUC3q943Oq1ZRlFkdUEY8Z+z55Ed2AyWwL8iQDtG6ANnfGE03PSu7kipVbquSZys0cBPXdEwT1OYucH79+44oWRnbwHuDTtbkwi+8e7btp9a43rzTT7CK99W4EagRq1uLeTeZiE/a7cB9IXgtFBCA8DGE/4rLKmjJ02SR0NWUXuBXEHnJFB4GJa9nuHAW6ezIbvrGsyPkLlCWBR343gFNgZInCy2tXU8ptNDm8oICkB5fgzLVi/HrdFLX9levQEOMLo0GNgQdDgHuDh4Sb8bhF7wt7aUTGtLyjmPePNfBsi7NojXpZ7S6DGGQ532seVBBYkQef30EhXG855gVyMxV57CsV2CIZweUDJ9p5HHsw6j6l5IxyJ8w4+eM3u3T9DiirfHIztYoGLLT1q0CgPA3THz/UrZHbkhK5O0tSqMoWVEa2U0wxOwCbsEkFak2IFCo+LtqbFez6OqKFwIg9J6Al+ORd+hUx12pexukBwIJ85y6Jl00dJKDZpQkOcMBaDsYyPfW/SJm9lmuV7tN0Q6M5UF3VPG3hh8sLZ00EH8dTZZgPFwglzg8kget8vaPIvVKjVON7frtu6jLiQRkNY32DI8nmMyt2Vpfy3m+ihsXZpoGKyNVLAsuJGUHA1WPVMB/7YN2j8QqOixRzyX8rK/QCITjsNlxoccy8kNtH/RJ1UvYhZ+Ptmtpi626ySvlDpkhYTkIyi/0PzNNWtLWw1iVI+4nAqNOtmK0lbWNtavKKQh3klwHgmZGC5Qgt82zf8lDQLa/WZnFp5cJ+cPxSIx3N0aNBi4EHf4B7g3mAgND7QbWzSNRbytXJ5d9h5xSB3rjoFLDTfnjim7J0DiIjYrjWZjtJbpUR+lcCP3HCuKCrqEtaKlYxldsTLUfI0LrIQGxaQbg1ZIgsD7+Qm74/m2VTHfSuRkw8EhO2EnufHgnomdnJ7jPIMzYE6RVIFlrem0JXZfx2AoDoyFtzdCes9bDswb46neLX4d/RXtoNX7G+6ycOB/qpbo2PeQUqjUSIQYXox4gM/5BJTp1+qlkAHVQSfUwQd7UBlAu5wV0/0gyXvPmZooKMnF+C+EcfPJ1MMxwbTpyWe0qHgHMmtDZ9gr6JAYDvfGLN3i6DIPhDtqxS5x+bXX09m49eWd5lO/KDn36P3+D7H+IMaSurNcHF2zn5Vg6P5/ftJFjCGdTmwc42Gqf5krDKKW3Z2yLipwT2sXFEYAnzf1DBpshdCljlYM73BRixnL/BFGg206yeGeUT1l8/JCgfsmLXXEz+QiRpBCLxTJJak+6/kxw/N3k5HCOo5jx2Pmun6sKhe9hJEqOUo0GngQe7gHuDjIqbWBl/xreJ3IiINDjrC+QBvOK8qygcHRLRzM25L7fTrDYlIGoQmo5b7C6QiMR9FvdIoI+B9igbWkrOU1EIsgxBsEFY1bba1DHZL0Z4/rcJGcQdW/pxdV0mcL3+j3czqS7aty3bX1Rif9LddLHrldlXI6YXQjua0Q6SOq1nHb5+TyZX/OHvU3iDdRx9AZ1awsOd88+YOkeMhJo3hGTfoJLVAZ3EdzbWHkdZIOtdPY/H9y30Wn5g1xpZlue8JvvAPdsxaqeTe9JhOOJTCARa68i2igHxNzsHdrFOGqYJfFJRscbWDacnONrG5WZbXPeGzJFXZNEHDk7crP6MgEAGSb8tjA+eotfkwwU+0M4PnKlwK4EWumQVSJ5ZrwI3kklUl7c69Zd3GFr9YqdyS3xkuJndVFSbOAbcMQYASlpOlpTw14z0s5T6ZnhkLhDCzNY0hrI/64u0cIsneMXSueeGy5+YBmUafTqBuBUhgJNb0txoCKs1EjPKLFwq3zLekqVdcGLUCmuT+6Yy7RoFRYi3Fm1EB0Z7cRLsvkVeRoJCE03co0GkgQf3gHuDjImfFebOJh+IAywLdgMDawEoNZ91Z0moPEc+hxMmwQgglJyvRQpERJlyaIKbiRjLCtbdGmtKedOC5nFp/fLvtvLFeRMmRGEVMpudFyXE1wdcsSQcxAtwgXGm0EUdQgYRzRLQ0tp8LliEoISVXH5zsRyw5s3BWVVrh0IJYy+FVuhulnT3RUfDcbtRDDypWp6insLnX6542m7E6rj9244UjKvV/Zfjdky1iKuN5r8kRjZjr1Do+aHVDjzo2pXTlNO/wTih2J2DndOgOojPrjiX+slf3ZH2X8ysMNTK2HgtlXSgUIL2zIJCItapVt8uaJ8xkX0mnpNfJHCJ42mE3nKho3FTBD6MBmx9Iu5uuLLuN478YNQy5vWCnuFeEaOfmb62Gos7gas3/x91K+gglGejIzf5pZ560IhFjK3D/WktViTj4eblaT80GvxeJPhCP6fxsSVTkP5MYfWwwiSsmKcbj7MM7umyeDL/1cUovL88ZC9OSoVqUP09n+6R1rulr+r60SBxRfHvFqeO5hz1xUeK9PVK1nOLRry2HWu5ABnUo0GIgQgzgHuDhn+fyIRlqw+vM8pb69gzkQ6Q7Dgr6hTGO+Mot8y6n6uB5TzJUOjUDMbGQ2Q1T1P6eI9+erJ2uWOvGgL4WUy/X9wdNhipmRqC/OKhAuB/bb9V7/vQ8zXS/BjK7nw0it+b/C2xaUNqwUeI1Bzzy1NL1tgh+LW8WPqGrV4xluB+wegH5PlAR6RpiJ6cbyimKc38xWuoxOhjw9vvWpncdCfxMe5o0DqJaaNIy/LjnR7NpLMgGBExjFPNp/SeoCGYh+WKgIQphfp7MswL4aaf+M6IeTdEbesFmUShxOh6fodW1Z/xLeKTIZAYwBeAdMlZgJjnEFRjurjYLo7gaT+6JQ8FCSwUOhRBrUiBkvtjxoJX148UyIgiyxQ0ullMTNGTSOus/jatOUDAwUutd7Ei/4GBm+ZIEuXdwoIr3EqELagZ2pK9VdCGWlLhnqR6Cud+LFNBo0aGHJqIGVBD5KMafUrwF30NzKsUfPALuLNCoZSYNjF6WZiQ9SvCqBw77NNi3l6EU0SjQW+BCG+Ae4N5c4GNkdJcuKWAZgMgmn2fhsxvF+wMWLw9BYvuA6mE09OLUHqTP/KZh78PClKxnYY8JtRPeB6anChUtjtEGfe+j47AqkcIOujdzfjfz29S3Lp+ZkjvpOmjaOaCTxOAqsaNkRUSKvdkQm7qIfxAuXxeeZRERun/L3Kq+tSBbndLCgRx0Mh1i/4LUpWExIItl+Y97mlL6OKZ1OQWKkTPoZ+y5oSRlgvFl0uGJSXWOIgMIa9xFRa2Ulfg8DXjTFdVxJyFyXYWwZzoV5wdkkU9SRa6ApzDClCvjLQljgoM6eeHCuduaf+C4azYo/wDrzG/gXLW0gGudKVA2+ZjhHeLaGjDQ0ToSGm6yWdppJnUJ5isIoRYreRnZdHxmVj7uTTt3GgixcaxUod9FJeQJwAKiONGeE5a9rTkj1d6KmSc+5ZLXgSL7lSvleYthahMsaqTvYOpQ4FE4SNebcbRsO6FEeY8JS9QbmFCGpOTo0F0gQirgHuDeXWB8Lfm1ecPeElOKQ46vwtyWv1CbR5CafZXEeseM1QLnyN6bVdWfcEkCoESZLdv16a9PrOi3JEq9KMxrNK7bFXuQ8VXq2kKQDT1IZBZYSOn1vV8gWkZPk19ijIY7+F7XJ9/Cy/J+Uv/VZQU2zRXVej+B4/fWzmfFjzagdLWZXcGyUMLRiD85x+0gFe+uSlvnJaEF//QoNs3opEsOCqjwNKdM73mcwegnv6s4mv0D4QGy+R5F1owHS1fP5ykAuIxd82CvmKbb0QQo6w0SzgvRyyqMfbiplvJF+f2xcLfZx+yGz9E8nf/B5iJhgS2DXu7giOCRPHtaalv6Wf8P2j422l+TEpL6HWdIbjPjwplCe3ZFDvlQLqUiyJEvuvXEpyl03JRL+yQB77OhDr+ymWtSeXyoG4OmlVCxPvODKdb0NJIZxzGtiy0WsmqiHz2UA5fGHsabBUKXkzxIC58aiEQQ9Uj/5Iu35XoUn+GdUX5o0F4gQjngHuDgHWCgjCdZgdfXOmjx+bNHLfLfNkeo8GuDScKBReNLkqLMj73xrWwm0YgFXEpdgXQfFRau2qrkZ3o97SW64eS1GR2fT1lvV0NsaaHy0XYau5DSLnngk1NETXYgq2C2F5mnIgEFueG1GdIZvMyh/3rl1k3RZ4jjQ0bvr380uQ125adE4KTLt1bT30Ms1zeNF4C1s6CfFZ3P9mThXFPxlIB5hzPcPfM9d3ujRNHW5FC9WreGz6ZdJC7LzVar5c/JwAUS089FjNPqy3tEnRtmaU5OvWxW4EFgoyNQbWdnwIrDaRnz78u4CM0CAOrGgLPYyX7XYWrJuJTEoJKuHS+EUVjQnxDe8ku/KPm6Bzz3ccZ4OLuZoJ5g1JyyEMqCzP6THGkZ+vY7yeRk9NE+6v6/9XU49as5IsP7wCyhFuF+E9sKxGdNkevpR/g0duHw6vyG9jCHOrch421M4bDam8OmgBNqqghYOBrXB1Da8XrYa9bIGjUSaNBe4EJI4B7g4Nzge0Agr8ubJxy/tLEyERetn0KR2E/Fat+/CSm+ZwG8k+Mj5DUUrpZ2851QQQFq2xYDiWMolpZicPn3Lb9mumKMVthyhskjgKj3Q3sytzem40+T/JWun8nhNkK/rJ45gU0BfCBUgz0YbVVJ6e2Py6rpaOJ3CTD2QueahKRh/yfRAjsI9KB5xNWZwsxMjL+VDMLyfA/ffvJcYjdodkfCv9mLpCqkVjBwghS2mHBU+9RO2TblBdDAkpIjpxmE91xyWek67b0IY3XzSezzZ6dTXVWhpbREd+xKMqrQWbWeHXDyd5sUT6zMiy3AGcKfsIY5cBJHeXxG9p7geDCtYLE6tT+lwtqdt5iT5kGhRtV9nvj8aXsdW4eCTxnegVt23lQYZsIFQPAbV1Mjvu8R2yEerDkPzGEo7KZBEVpNCWIZtuaEPTVCHhpIAvbB7rr3Vgu/qPYqcj41PZQbdty9hFvCYGyD5M0W/m/Wxy6zLZr53TCJmpeQcajQZaBCV+Ae4OIf57I6c8SofQGQu86/WxnjAZJzsvX3VI138+KyEyy9NX6ntMmHojwguA8aAI5zwkZ8b+E54zv5VdZeNcLDDvh1CR4NzU8S5Ta2gkh9c6QZJzD7ze+p6AimTZT84j11S1S/fgfjGG0Y9GXggdNVXb2hPwc+MmDSsMtisgZoQsW03khgVlGRlPvsECfxqa1NNzdTCw0XdUJjofj5zeQIcNY4/Anu7g3N4WJ+mhgzkSe5+e2F5XtV5vfLACX1kGEmhzl0WYDqPKdnnoO/KpD9w2sDIwEHsgR2QfcHmbY3+oH6YESOllvSyOZHz9r5Ddui+TuJK9jVnTuB3apNAw1LDtKv3eTwpwQvr2AnqMcS4HIUsErW5pRU/Yzh3M4l+Z4KaJs0+h9TIchSVExq3Zlj473XG6p//068xZLpQRgxstzbLdypniSPL9C1Xadq2ZqlpVnLBanRetBx20rcwwj4vrirA48qFIF2SYd4d6Umpyu8l7M3spk7rc8sW09DA+tMenrKLYggh2vkApDUcWIg43Ho0F3gQmbgHuDgHOedLzwjOMR8pKF6ModMCG1paoh+BWRXMobHnphHlhuDTR00g24st1Z237n3leRslM2mwZqW3c5ZW4q/WJtLOJgc3s+bOlEizVHfAB8mkd5W9xjQwXOSjhGlmRsy5vbeObknH1DV1IC1kzwvEhzBFo1ws2AL5naicJdnpu/ZlsNlIFFJasEj6qusNBrf3g0P/1TKrSQnyCLi6FLiXqKWiI7sDahaK2dHNDGQ1wAM+ULDLhSR2tS3NGL6Fq9hQxh/T/zSFO1VCb0hRmGV38DOUxyhHJrUTQPkR1v02gInkUJuVH0D0qSX20UoPswmXlL9zNdblMEaEjHDU5xe5LWiB80dpR/dUlhmEU77ZaxJ+eZWOhlS6dFGqKeCBhPvEkcazmBUEqhELy5Zciplt3YpI0EVypA+vXn3Sk0rqv/en5K1Y9jreBKEUQ1w212WMuowIiJGKKD0xkbmIqt/OBSu1M1EPbSXO604P5xlKu93VICo0GCgQnXgHuDcoUta3MXdjNqDA69+JD+HnNsia4SWncwABkkfzuE6XAEFqIFIVAGXfOYNpy5GsK2nfyZXyrlTOWtEBipv7tanwNCNDrBj2jwZ2JPpi3Ak9lGr3G0cNyLnalZN6G9oF9TSpldCZVbZmexqRbFtiZrIO+mFgKA8zSoDD6LEqxil86ZgZrcOcStjfco29/NhBLoWjD16CssWiSJ+ypvNmPE4JwzFODX+A++3aPcjOlrogmnY7TYVIun8z7gB89g5HWAhV/6TqzzEjej4W+zGKL/L3YPV2YDa8F/qdxih9kI/QzEisVfecMtuS0BBKlUTYOTUvuhtopDq+6JgVjrhcKNl9sfeJVnmcTsSfdZTnY+wspMC47QHLQ5rMO/W55E6IK/QxrAlNzlglwso8927DMiWR65634UC44Ni13jog9VMTQznGEa1Cn5AZMoW2R1ehPO5PI6JGkptpduegqE0v9fnRRqJUApm8NtVb2xEZ0nD14oNQ3ZsFdruUY32YOjQYGBChOAe4OHfYGvvOX63Ii+TnB219VJPCLlQbexAQninWTT94dN0nFNYe8wS18E5WM+xcDfB854r6XmOjN3OctEyb4vSMzOsspNiX+DVX+ChNLAb7Fmp857LCL2lG8cj77vOC7YdzGFSNO8ZzVFSQLPOgm+63Z60qRGsw1RdDG1It/3MOc1XYvZkQuDdjBrV4E/qx8DSnE0kmMOPRTEJrPhdZp82Nh3uQGfGwKcMiT/PnNIGn8tPkM5BOkSGRjSYTl8H/XZ322KlRNZQsqVCGjBh5llKpB3wtypzBEANwswmj0zDJgpkfDyCmnKHYfA/h7VT+OuI5i621dBicqCG5EAioSH7Z4TJFHm4eJ2BGZP1ylUJ24aGrhgWh//4sYe9tw8W9apQpxZSZJMkk6Fu/YXZ1K8IVBkUFi6yXt7uqUtN0tAhS+1LmQPqK5ExuGyNaAREvxManx4LT2irVtdT+y69v4xLzCsgP+FGlouQtUGS7v4Kjp79XBKfHzpfIkuKhKMo0GGgQpPgHuDcoss136UqLFxCFrAy+XF19R5+BVigrpGWDMLuhilBeH7PTWRq1iDzlMU23K4MS1sK0Qo/evS1NqavhWtyDJnUQ7PJYHLaTmfqnejfHf7Sybal9XEX3DjOdhQCTk5nDQbj1D5WEoJkmuQ1J5pDuOBsgqWHLeBFp+Lc39H1K9F2I/HgUros6tbZVlbQs5sY5/5VTaGcgnvnQPHcILXSncwmW4O5hTFRPROBM43AvNURnPRMsMh7UlZorbjMWDAe32Y3HQORVchDjymEHaCYYsz2AKnQ3Mfj6RZ6x3dOHkgHnu+LTMSVL9KcJ43qQu3lh/xC+OlbVOjtMJeUhbB+t6ZguwM3BVSzFvokmV+Gzskhyxxj157vcYPAFjUWJ16342ar+L2k64rC0GJGwOUyJxnbrub8v+HvFYN8ZZkAd5ObCbointc+wk7ZVTkFvk7goMJTPpdcUxvMZx9gg6WrfxJL/9HgcI72hYwqjkgB0kBJqmNmHEjVReCcQYMBKsiBM68o0GOgQqLgHuDfIeMVDx6M5kbbf5aISdRvAOC4BXodvO5xMCQorKiVUscX3VCEKzPMKFdDikQ6k2r1s434R3LJLYmHku9fOz2tLcW49TlSen4QyVDY44BUh84dwdjsQ03+hbsrbrq94D4ClgZgRJXjmw34rmQxBgoC9FFNrXYVADldinnMFKVgeeu/nMgi1D8GB9UVsr/L/mkFrUdjDiKr7AUnOF+9RlwryKRkUTWa+9K7MUkCEP28s0uMl2KuBFB2ki8S6H+JLBdvU6R5907EONc0eYjmpyS7GclAZnD2EtTCKQ4C2PiIcUqpds8YTee4U+ur7irWHz95oqCnNonFeSE9ofXt73pQYjLeV71glBJHLWhpQ4841iBVDBeS5rm27K5CmpCmek+SXa+NZU/Z07zY+4Cbm7W9NMETk1M/6VSE/WsSNjpZinQtRFFWutvAW6iB+BNW+eedNyZWgJPS0mqfKpv07FGKwfoZHDUZE9qHMwRqBV7pzoJCsnUZ7Ipz5vBuTth5F+m1r7othOwSv+jQYqBCseAe4N9hKS1kkSgcRYggX9kjIGgNUks0DeqmjEPrYWhHyQl4uzota+veDIZIjM89G0tUN88WWxGdV28+XihFldAmInePcHvq9XHqzRiAtihHmy4TzFNOq8JeUfqM8yfeOKJ2J6/M5w7GMsw7+X18duJSkp2/35V/UwsgsZcUO/qVrpGovTvggSzUn6T0dqLt58MjmFdO+YwyuFkKLK7cr/YLiAIyGNln7CCPmVQRWWXmqA8RescmYrehMglJp9FD7C9EiFuuGQ4aHrj3crvKDHN3bmJpK/DxTmXtcv5eykxx8NGGpz0cvvS3xM4DeBN8eQHyQtScAWSd2+KqRIlqONTjWI+6XxApKC4Q5elXQRBqrHhmlxlMh0ovh9eA22BDReMiydLi1BWFhIFmccAf8hX8lJ1AK7CDBwhUobBtj5Ee4ANka39qshUpgtX4CdBCy/WmbrFNMHHRHV5trNDEy4YnVpuBhGLFowhXAWIq0xyrPoT2YxZKtjBMtzs6wm96uwUkGuN7F/Io0GigQsDgHuDhomjl/+8uYWB6FAy7mC4dAFbHcwMPDED1nXQJhAwENvr+S7A9imEAwvYqy0FxJQFEMSQYYP9XusZyUhJISaozyKd+F23BP60zDABJQgHICHbzDJuRXQqojkIyMkullBHGV6pQz4F8l/Vi9mjmfKIDlAvEyOZP0/Lmupj4L6dyuQu1du0lSBa0aKFM8chpuUw4yR0j5DUZAU5XBn41qskAPtn1se7DWVstsxrbKwUqY4WZAVxou2k5qyhiTtVKMOx04pOWE9RcQ+i+S/pC1lJ3dPcfcgCkSq9Ncw1+ULipCyWOsItn8Xhj2eIng+1cLM0m8PrhB99+D1dFIPa44zBVpj133/EUdHD8CsNvntzle8+o09vQx71Fd8F9eryvW9+cZxCv9YZUWsj7PKQhn0det/DbK5W3yEHkxqQSHtcrIvebhFM8vRksGIfB1NWfLlyewElRKXQiQUQYFu/Wk/OgddXlWt/+bFTVyHJcGtliN1Khd5kHL1pt4zz7+dHTdCHiKXVqSwwjVVJxx8sMsc3lnMopkw4v64OZCKGEqNBcYELP4B7g3p8iqbtHsdx/GJ41Mu9FqA2jVb0wzAqd1teBuD/616gPcau0trpkOyA4ldnamHH9tKI6z0nvhjtQYiRdEVZe3/2xCR+9/saPo3x4vClZIaXXxF6e0gBChbc3B8jQPq0gwiBSSdixnrXYV/aAt06pmyydKaLFQxZLdnyTcOBJy+eke7UpxeS0z14diO6hqbb3JF1Xjq85yptW1MFcdEih2+MJ/fW+14o/SYkd+1/cg3q9EjWGtKjoSUiTWG2+FhtNhDF/fgUhCWrKO+JmpQatrs52eClGo0T7mudZQRkf0KxjcBpWamzKDHMeczTPpQollvJAhVO203+BJ1xq8m2mDlSApmZwEfiwgXtFt9IHBIH1GgspWsU9n6qMPRf1zY73xnvewArBS27HbuYV4ILUhYCRCO8TZcaeY50KMmUmR25PBrKTasKw5tP39ZEb1w8XpAPvQIA4AUEY+G5Udm5XWsHjfOSsOWwvVbaRKNBaYELe4B7g3BzLR0FFoGjbM2AO1m60TPcZ1OQkEzuKVlDaXdgB8ayudhewwISD0jRgVVu41dJUPzh9zGGQcE00WOikvtl1mVwcc+76ihG13KLC/xvXyfjn7I1O0yJIpItvhQhQVBkfpS1i1IlRv2R6oSog0N8BN5mGSluBNoey83iTve2NgZS4FB1FqXhy6p59XV0XKxtYL7DojQYgF7AkOu2TZ0WO0t15LRLCrP8jaMX+AabWGv4FNuz9m1Ox7VrOH3t6R2291n9ZRUos/GNoSUJY2sWJPnoBmhP/C/+e4vvSZvtiKOXjAJjzgIoA7za/dXUPaTLZG2kgWkabayXv3pKabef02ZiebMk7DjnTespH6YUy8j6zFxTtFH8aVSyRjsHDNtgcH1afgvfHoTCoDdlZWuCrutLl2Bw8FcTDpvb0BYbLgGwcJE9CPvAnzMTNdmVq79ynpWojD+FFSq21iiHNfvBEqWBtTmjQZaBC7eAe4OChIENdU+GJ2npsfWE2Ohqhq/pOo+oZ5XzVG0qckPN5G9Pipo3sbYdCHpx/H8wovt5qw092OfFkBqAXf0aQbuBIzoxYfyrrDmUhuujgg54Ae42ph3OPjwZ4JI9L7cuIjgo2SHyS25m8hgK2tUK9fWyF6eW4KmrM38PqvgGqetrYXGIkoiBKvdNSPhINp7wBsXnXr0c0WKVholc1f9IQRfUmAMd2VI/Il2O1KEmMlRXwb4l/s76ci6/h8Dgw8MQMzeDVSg/cJUapWyi59Xyp2WgetxLROKfPabWgHmNfAcicaRLa0PbwEHhiMnGTLd4IB+p2QsUEpv9Dcl7OMCqJPmdmuKdq9grbAKbT6leCp0fOX9m7etnF6F9BMjmtn3Mt7zcJ3BbGboYFP5JawPw0Q5LjtXrW0BYJxASNCt8d4S+Ryvr7WaA4rsNhz/yxAHQwRB8qNki+q8x7M5P/l+U4W3+LKXRheieDsTlARFC78k2QkZTEfYm4DM/bR9Xq66XA0580xWTlX1Pe6qMjcvz9NE2o0GZgQvzgHuDg5Gcjksvy+jS9L4GAHNbE6lLZUh9KERgk5wqSG4j61g09xtSeSyiycHUY6QRjQZ0jBL3FX2LTg5WTGyGyuIs6HTqG6spWe4J8UB+RfiVBhUVhI2Lm7aPyaGATuiSEoYDta+OgY7khp4neoojjTDdlofqLLQCf85L/neTlHhX2vLvkh9Jx5y8b7D9qfeaheMLGSqBLqzwQw4M9MAV9aM0vMtgf9Xr4RPKApKW8/qh3rXEcGPS1NTM+Bby7tmFQf1hchuSGb2fPZLId4VI3oOBPe/voCHFnGpwZTtGKDUMYuwafTBF/Md2wKhntHWf0zeseczBHhANXuXXX2ESrWDRhpmp6nKQISzuT4mCfS3QzKLryOkiokigY5xlYyKKW7LtMpZYm774ZCY8DR+bq9j9zrFk3s0vW+JM3ec8tI4u1RnX//0/wZldhUUh8uUGvpqGKNypqPG49iBKSTW0JbDutAN/l8gwmJHrgs/fVsP202ibfr2QG/RBxN+/Av70MZ9dG7gYBXLPL0QKLAWoVehlmP4FwKNBiIEML4B7g4OCoMemEGcgvu7/1NnB2gaRGFTCD1aTtaKlgS6VYJympB6LRA4bAvXq4ssTyebRK1ebUbSOj9RohpcM7SN+vg4950u7PTPnzjTSxtgxtQtg+SWpl5Ncw+1wv5cPFokhMViHFvVmUwqMzMBBF3naXUgLfqFtLmG/VdryOZs/OXKQ4hgC1hWezPs1Fzxv65myBZ4UEfRwLI7SRHspchNijqE4obfEVDzbOYL6T3RjpllB5Fcl6uLhBVo23LvG/k3Ny5ONpWDyguytNLtAZq2ZKKRFwTjutFncgqQGvVAb+RNBE/9DqvbZ61+lmgE25CIH/HZQedJ5LCcnSdhPx+ONRcUJ+soLlfE2n72Cybkg0rXEqDCA23mq9DeqqvK5lWz2dNweb3Pd/GQBfeAkYikCol9sGokST0jFSO7ymL/Eu+ZQIrIK5U+hjF6RWheqkqvDbceCkGAGM5JlmirfeZ9NiGBmOzIoFRfvsSLM1D7Bb8P0IvvIb1+8gCPi4bgvsuWC922co0GJgQxrgHuDiIGdak8JIWAWJhNL+xuhsk5XL6RFz+TFs888qhV7a/qJ6xEev3hcZ5f8QvvNQvzdIbF98OU8MXob3Gkd57mRJkCBFaBBavRwOkRzrU0F7HvWwSXs5nDwdn9fmXW9tgXEqXMDQ/W4YusWH28X2ggSnulZ1ZM3GPfut5/8CXKWL4sjr3sp9XslqRwQnIDF4owHvQcxF/GSwqgkwrvmOkb7vKUYWUc0rXA8SFwpXKXJHjBV6O/YWTgW22Vzz0YxfeM47eBjY+S7z3LKVszif+PUBh3pqR4zbUW+Pfn9TXhNFdqrfUet5Y2WDU2llYvLIS/nHeDDL66I93A7ce6vwgm/Da7rmHnvynqZ3pKFiXgF5ZnDPWeckY0IL6fF7gfEPyUyzmXnltpDr0L18HsIknb9tVoV9DYEW0ATMPJTBmdgRq1G7ruW2roSRAWfcrvEF5e8J66NHH4ZfghY+Jt2EhqzrG6LB74Q0fW5NLZuuCXI1o7CVu/j0hHTcHaAtrXo84J2oIrRo0FfgQyngHuDcXAvA8wo3+Tn5BlCpl0eEgIPcmVjO5Q2V45gnldDh6tz6Ul9WPKOrSQfAD5UvHORZjLgOX0Kn6AQeiXh3GkYzTggWrX+DmypoOWaYVp8nWNnnBl+gFaazhaYpymsO0B0coHgIGTLeBUXY2pJYGin5EP+ESuEt88bED0+RIP/bV7nDoYnpSOyAfaBKf/HpFMBOuG3O3TD7RzgO7940PSmqVnXWTIiZ4tvxRkYxxhyEet0swk3SL9oX+4l/Gd3t49IXapVqoRBQKTpDVTq2RhvguLwPIxAatAAfRouGDAocq8J0oYD8tW3vZN6pXC2F5ZQ9/r6Jagfi+6ZFEieTVcSvntWuQ1TsC/hC5Ya4BwFNzUDjOT28mKBxyiVr5+rIUoQ/NYuOfGhzGXbpmzs1tJ/+iYfBKIo2DDcmOfLOSdSW3lGWGbgLG53N1zPklWTLqr5d2GIrgV0jU5Co0F4gQzjgHuDdnwlGMVo8pkAqH5VrctmP+AOtoGknogltJkThRSNdL39M8pAzz9myZ5VACj0JfNxXqH7DuLEaZy6Uc1lIWRiWpkgl8RpTdml5mwvFtvpRnjpIEOQsTS8Rcz7zmWpNwBbnoUoK7cB/SujJtyigvqNiH1E35XUttVCA5OCpE+nCdlNYP5jpwAoO6yMUM7flMF8rVwzyROyMr7+wb6LdVSDglnZoM2l4QlPstUIf+CEbx0ZXkBEY2SGvryb97SfhenV10x5GuL5z61bAm+1cLWlX6Ah3kc4WJvpEOIOJRSmOO3wv2KWry4fLocGBB57zOPwSFbUpIDDV/9zc7CBRnX4dawNg0cKpowUsHWWmx5NNAnA4oiVLyKZ0gCHxrwNb8mHlYJGVaxnhVoxXBh9jp/sxgVdRHGZD/GV2buvHGuvJo+jIUhmqhaYm0I3pvMkyFCZMJwm9K9ayRqS2EC6Se3+Eyh90TlZP6hY2jPMOQh1wjr+C6NBkIENH4B7g4aCgRT0ngFNkYbWZdQ9JjmdKBem/95OwBECtS+kzAD9FCXpdxIc4kqmzJnRKAkxhLniDL/MTVOqrKYm1F4eOFvlmySCwntbF6L8hBlg4uJXWzxuNXOErlndwTGYggUaCwiRrXDIXKdO399bhyq7EUa5i6big3LlQCkOo7ikdKgG09POvOSypYaBbHygsSjpxRzb8RitN2N5S6+X8h7kgE4Z6pGioddP6FPJY+Y2nWhznKmjtyNF0la88tUgLSkXP+O2ieBHEYu0AhmR324UoFLkUQcnw3e5Jh/0E1XvdvPLz+xNPVgS+Z//jAYWVwR1H/8lI3Rm8uUu2+3tJCCT/k9h5rL8Tj2zfHbMgXOhrJoaD5/x2pdsScB2DkzHrUf1T0IkW9Ot/6SJ+MmwUu8aOWXi46x6FwTFKoZD08GGMDUZrcAVU7vlg9yXijIJuNpn+kA6KWYY1AENEjcX50r/wd4JKI0cuyiifgDh3kzZ7OMh45AmTfqD7VugCi5CLlLovrpU8PYCJnDvyX6jQaOBDVuAe4OOi5y3Tkop2ZwroVSQPGXSaFPokulbfPCBp6RyIMDbUaaOuZVF3A+lC5gN9O9W8hKdU0DJ+fYLRKPdol7TLPBfk9ocZq+lUyWlrYzMbke836PdkJWQ5F1WfBOZVFom3fONj7zC3Pz1380eTEYzsqEPYwF/GBNAFYGaMIt8T36ADQeQde4sW+6ugFkg9+C80YGdN9PO6Nrpbs3RBwjKS8sryE33wgEVcBGIcyjSt7LwVQmpeumEpkpI6FWf0aUsxNagklw/5UZQgNpOi/JvexFLFuZeUJ8B2ET78YAiGTjzt8aXSw0nKghQ75WsoQ3HWIXGiGHMWrF+0NY7oH0yHBvSy8Kux/vhefr7Q6U1P65h9VGDbKhTiKuzESWInREP9lzrMBqecImGh4EpEm/djkGBGH/3NDV7Wt16te4NGl+srblwYhiXpqVf6MDy/zvY1gIH0gMGdf3Vr8v419LN2xTF8QJEHfghvZi+F+HxVCR4wj7sL9iOrzsiPuD53Ib3huPQn/Jlmyr+LxnBI0eYjLU4yq5mhX1yrzwrXkgrSKNBlYENl4B7g4OInImOTfbehpYmHEm9NajfBOTWDG8GAX0G/vP6E1PIZNRPaYJbWNm6RMa81FZVGTEcT6o2r+k1HpBCgPwx1U2Ak9YG6DdWHZOhR67azKgBc+44xTMYjT198bfi7PugyT3G9UqXXm/KmWf5rP8E5Hos1GerwR9il46ufeorlCaf0v4Pc0Ccm71lxwqdu5WwwA0/aa/GCOU9ztl+DcPU3BPGbUxuQSV+NG0x2IvUmGEMQqO0XTBgBYADYBhh1FJGyEMZYS/58OOppjfa9Y1uF/pxUVxOyXZyT83vDlJQx/UMzbLiK5pSeoTgMjoOVotlaUbvoWNmcNVmerDXmOdawgb3xK5L2so5IQtvuxKSnVE4+8/bcxqAHl3zB0EUS1cJp+3NHVNr9rGHTyGannJDPrm5x9uC9T45Nl1R5LuBSKsZUHDHUT0emTorvfhaWgU+rC4aBMFRDT3zOtlLxR5F9+G6n+l30JsmVhh+v/lovgdLTLh58+zYQ81+gTWV75p3dS32XaDFnbnK9L0N4Vi7i6NBboEN04B7g4N0nIfX2bsSbA5G9e3WYyvyFNwzOImqKq/sWWCTeTiJUu9I4fFCuLVNcoX6IIARd4n7aO3hZKnY2PJQ4OeUw9qwM+VHHU5JY9jxtxRF36E82noFWVqcLQcpmpBHMVgJ6EFp3fnorpXbNIwEcuA9TrgE/uVbqMXf2BWy5bc95+BH69Nm/cqJ3GtPhWXtDO3wLyPnEATDDq+17Zzg3u5bnTsRKGL7LdhHFolluB9gJGLQ7JeARnbzJHB/yssKrnu/qPTr0iNGcXMppbPAFEla+pXLYyNr0HpBmFElAt6cSEevhPmPvvuDkUJ1Vk3U0Gr+Bx7IoHFJn5cmwIkdH/ktpqQhDHOUav50KeblN0tEB6IuCiOlxjj+TeO14NoxDTd+3mSr7sT94t7ERzIGO5/yCc45RyfygBVDdWVUjCtetSSUyWU4jAa2KblRg2ctrHkJN87N53b7w9JMTnAIvdJE2oN7rm1ZG2+1y6NBoYEOD4B7g4WQiNdh0jP3SRhxCfvItxjXNfOUYmGBo+69v0Fnj7b+5zoNvKlswupW5ApUAiMcxVyeANCuUcCNc0lSWJ5jo5A6aI1TWLp4kJ8QGDlsS9fNmea4mA1cCbHJ6YfVDPgc+SsSdAIwOWOhJofAbeZ9eocAugJXpA5G0/6vl9Sbn3ln878cNPR2tYqOPau6NUaAk97dPREEQhXfNnYDXBAdOFn5YgxAmnThfJrD6Xwpsf40OID8dgOKofm75aOssTK4YHMWystDKhGdXvB7o8mdKaEyUmaY/TwSJ0IKM228ZgkA7ZM1QgYXBwvpIxnaUsjr3E/9h113nDSc4gCMk7uE3+EIor4K3JS9gcK2+sO+ZZO9rI7tn9U68Y29akdfsO0bEOLequ772SAHwdGrytX7Dr/ogRWGCMMQDjnjU/mnWjm0s7ye2qHUNV9//r/JkuMyX8zhasCT3XgF7dFLk9oTooS4Jr1DqkE4CwmM1v8AdCSXbh3gt0vu4K62KM2wkKCbkMpor9iRXkmS5RLBSvluY/Q3rIj4OzC9EX4mGaNBg4EOS4B7g4KCjZcA8oHSk86jdjC1oBYbysq8BVByG9CrsPQKzEKnSaaihLJy4cBOhQXz+3LV9lGCyzFjxVDCEPCViGJ4VPLe33JG0j8TZksZZPHsj+5pCTxPpoB2+wtPTIhoSMW9M1EvzQTjkgELpQouEapqWc0d8ZM32Ek10zgEVSw70WzS64Ksc415R6GYJS67zHu05VM4gHa4FCGDk5CuMMr8RNNLlKGiIcy/BC5YZF2idFIWfiaiET0A1v3ouVi15MM5x8FDfU1+NuR0Z/kIxXQ9l3klPxVF/uF5kgKDDBmUqYzU+60v+SZvsDV1ni8/8oT0YGV7D4LRQFMOvTzA1UasLQH9F9JMtF2LMulsPrNcGL3yZh9EjzUQysA8eT0kcwrDSn/DjAaMvtqcAoILtKM6QdOeggBH7ktwAhKqfpgQBCmk2OAwvT15id1yRgubaxEu6kPd9l2qSlExaBAy/Vn9BOlDj/1HtGG92LNcD/KFQkC0ndRUoaWtVTOy96mOSqNBgoEOh4B7g3l/id4RyE0Va+w/rApDSRPD4AwxLqpQZQU6ptXENCjbVm6NDHbLVlv6RGEHzMEG6TRr6+Od6gQ6WnXI8Ow9YLWcOfbgfCHMDdJzylpbmJmYVrIzVJesocYaGXzQdRpXyObv5S2oeqHNqsJgknPVvm23/WRbJf23Gg4C0YE3HZuPpPsZ4JOVA6F0bNm8VJlq8BjKX8VPKRVH5DiYlP/BKXAE+SPXxhcv5wIZXNW8WU9zes2ZvKGXpaG9DbAOks/sB8GPjT+dNhfX8IoNzeFTtbH1c66byfNPxqA2ZNwQiN1lj1vmVeUuhOyJh3IXAflIs9cUjMlvBbQQwlKBZkpjDfjUVN8I8H6E7+6sqn3AAxdlqGLQTiA0ls8u/bw8hJ9ROn/JMD5dRQ4P4IFy5X6mqasBtZLYMEC4uB5MCEDb4wWDUbdLBeL4RTansj8wiVHRsHhl8fQt0BsHf9iJcj9/rklwD/MzMuJwtb+Qeoo9W6GWw7yRnhbct6sTpEbMo0GCgQ7DgHuDhHmBYa0Z6LpcoDf9EEftuRwKz78YYw9um2DInG557la3weNgy44K3WTtGHpP3oQQ5HOki3WIzZB2+EaUctk7ai8mH8BJ4Oru2Y1AHzrTmp3lgynXJVYU0JHAZz7DuGTr3tXPGJ9ffjcnsDfbTl7Y7azjj5g8L3+8vQoo/DkkqRmcdxdSWcGBLuZU4K94CVqyJn8b8ZxrNIVis29Vk9dT9UM83x2LHM4PJCyKWHy5e9iolnfha3KLiGU/9PN5Lyb3nGxfYpbclJteDuke0A5fIk7P18FWS+tktmGElJVP4+EeSrJf+Adc05awTVrHnpNuNWSHEVNhSG/J1eL3eDcCgUEcwbscWq0+SpP8SwuMh7WGns33+noFU0pYw8i6/hvYCfadHHt9K7dWVScqromdPIZ+dqY+Od4A3IoGTZsMh6QIY9FFzpv//ZAxuDGg2Mf7TPh4oZmNoVMUIgFkO0Fwi13/g2Jn48I3CjR08qwUc35B7ZeMKOinUUIuCdCjQYGBDv+Ae4OCfYEpBtkT6oskYmYOjX00wqUtwR4OsGtD+BHuOtCi8KihkC/pHoYKK1YYDEuqNOtDNzHdDKwYwzxlg9Bp6GPBv30vC2bpELCiBrY6gVRty2l/lMIYptaYtwsCZfnHGYmofAN/jIsBIXKnWuzOH8OPz1biyDi3TlFvT5+cpBWgsIHXhfqBHj3fbV/Fd2FodmZNKi32web6Q/JVWGz1h0jqVyTRQxyBKjQtBEvvOs8gPDPE+ZQSDXQk7HhjgHIao/9RXh3PLBpIvZ8Kqvhl4EPAw9s3DW7SOT40nvYp5tRe/xbpqVdUDNV+0PWiYNfgwXg/kdD5BhLx6QV5ZuCc8BmFw4jJdkR36QIfppYj3Kt7RlEWOrD5ysMObzTRTYdnEmJFFQS31RlxcPZ/in9YG5BYJg32BYOAx518nCW0nMXEBcj2Vexm4jNOMuZsSMICX9vvUmtmBy8Yhfjx16Jf3ENPvWrbH5QJjVhZTnQiJOC9pyfPPsIWCHcviCYHo0FjgQ87gHuDdXSITHM2o+7xtKy4g5No2khhJOdSGRdXDLxcFUIIj91b/UnswF6t7hBB+lE2IREPwlTQo3H4F0e3doEh9y14cZHUjr8KDEKCPG2POHwIE9+TrXoO3N0/HheFT3KiV5NEUqhiwB1Vw979+Z7d5dSYKR8A9wNN3K8pj5BlCvBxZEKLhH6T1aCR/r47Wfmlo+3VB82XS82CMiQymGUrgVk/2M98XD0Bj2Mfv7KF3A6p+d1ohCOhFpY2O1D5mOq5Eh/kMpcWecnVJcY/vLdEbr0kiUg2rhQ/vj92J8oEyHmp3UpCru013NN93FqKAIf115ZYXOuAlHB+iRS3cTquoarT8j84VN26p5T3rzCwaFd6HZff+veNz3jNT24w9fKTMqagXhpI0j1lXuam10qoY447/d3LX73Ca+TD0uCaIlaOIkD7hoCIRvGLGGrpX3N5itRJopme8JHsl6CyHsTOi6NBXIEPd4B7g3dwKbACUasN/rarqZ9qf7sb2migeKV3QmCA2mAGWAGgbHm90t2E+Y4wCYb2oj87+8PMgYyRJQe3K2dFA/6dpfiNQ9cMUsXnri8t8uswjOqfKAbMBMJcRpIcZG9xit5dR6r0ATXuhRtJYaPg+COaMVqpA3LkhT4FMoknx0IrlBEsMZuEdF/1fmdg12BixRS8JgLJkeW3cJRLt5IjJpl5WvqqpjeUbagZj5eC64DH2lWmWPXrEGvwQaWKN4XZEooTKH53cqcrcAEGSL7IbKY4QflPU2CjsX2hQhI9ZV7KRtWNrKVAV8WLYGoCJCCyocm3mfD73fADZm1hzpVewvwjv+uSAcBRgk2m9bzrE/jrqu5aCYZRVnpvqQ1eV7YP6KcWBwu3sv0upCGyT7bqMcJJegq/aLm2QHikElWn6+GY10nPc3vLVKR7Ms/n6POIRI9VRDrvdNwmSKNBVoEPs4B7g25wHr2DPYZvrZCZ9u/WUT5CI0+/JP5125X+eowx15MQ4ExKd7gMkgyWvnIKv4KsNTZP8I2vaxDL0Qte6//jcNHGcgmKqX/wimBUmwWj61HgKvasH0UxgHvkWHvDMKx+rpZaYlLwrmdJOaLMbToibLAdvGEGoZ0KYTCnL3AgAAIiUcNPx0RnRu330aQeJlDqxXSJjceoq09r0aaO/scl6YNsF4D/JidMGXWTu7lyLxUdw7mgSvvx2D0oSw05YHu6VIbEM3mGVWACwK4ZZ6m2sR7Cy+YXpHa9zcG3dFZBNNR4GHOJki3fGLZGRRrOTOVBk7m4a3e5bAVk7t1Aosc2c58/eyBbvvSj/QE9QKgaf69wRTR0P83OlJxvj2ov7PzrbgPoVhWvXQ7b8drOD2jcEPr4+VFJ6LrTEWh44c2lT/uGwp8ajZIt3PIDB8H+W9uMZKNBUoEP74B7g2xtGIUntiAaBQRzL+iIynKWIScj31Hi0+RFPQ8olu2sq5RnL1L6b0pUzAIC+INHJoAJKpppzn7DplYNkW/0hpfK0I6J10nzaO6CMfS8+qJ163FXj0a9Op9MmPRI5nMkMIJulBlBbYca93gR9UwyFXtH52avusklOQEn+v9fVzAwdpTh1RZ4zKuhTNNxJQeybSVWe7yWr9d931Ti1WV62xT+TpgiQ8hTCjuz+N7SC2CrP/v9z6JiepWNHLPRsCqwnHyxElmbK2tIPI1VJZy6sApjgHwPtD9juq2y5RV7R+c5QL7635Jt3ho9VB3eTrVtyn327WMGvlOUKsOxXdFkcBqo+Wy6BZhbiPjb4U9h1SdArHyPSaXL4HO933rhOpKjnPVoY5njC8IPtWKBK0vzWrXkWXPIhtzqxYe1eQ9+nc5Omg4JkJfcUaMvCZPno0FJgRArgHuDbG0VTkrjHs7Ulh30qexyVHUiGfGt/EICGBEstIzqhVRdSZuJa5Typcvk8HCHgXhlQ2dUp78vc8WkTJtGe/IxeQljXGTYcuiUrfVFRL4xGWe3mGg/Pz2bWXGl3jaj13HCx3Aajv9P1BEIDYXPdC4VQod4iK27QsZWtd7rQoDtbJT4n8te1H3dZmHjct1/su6WO18//Ww73Ss5tHm1HKOHhnLskaUt5oX9867W9naqT9zXGVuYYB+WIYQFGN4h8aodJcnmJDgwvZN1GyNPBwz7JpuVebijCdRBOpvwFGEb0MLW6QzhmysfeM/3Ab8TArjEbUebQJ8uyyABSyxdWEkjbzHmc0xe60BYgoZH+0ZgHidxmynrIEQbbZ8mJZaPV8nwv80q36kFv6DRwdMy/GKRrWW1obbjn74pkUt+5vqwed32dCajQUmBEGeAe4NnbQ8V11j2tP6cCqHhgdFEUiUSxggGnpNlWZA+5ou1BQrbuHDwpmh+d+8+XbhtTKZ1vWOq4p+3kbGQQDyRIYs+13m+vuyM5hKEAdkbbGi8RpvqDUqyBpTRxssHpzmsbgI1TM1W0cqNYuYO9uSSxJzg0zI/EqnO0yhhNN9cBILAaGvVWmjUOEVF9VIqvlMYrZ3afel0LNq6ajhQT3SQyljrCN2ZSLnOSFqT6D6T8yIZQVLBNqaPStPEd+YJYB/hHRzkNIzo6FlwpT1KrcdCTSzvonOt7vgWDuSggPMIHqpRT+pL96tycTk4BDwtF24Rs8FpcGBoolriUWouDEwUjyM7a5G92Oac3V6lysamCkIrLNPOA1o4gtgfK0YMmiN9/T0bI/0FZLfJXT/5lIoaIFq8S+AHp7fMw+PwqVDMId1qdSkz5qNBVoEQo4B7g3RwAPNkD5ezNq3/JiEzsVQLHuTvER15xeP8e4yghj2dgiYEiISz8pen+aKkGBaW9Yx0utkSc/20cHm6+YUjtEIAbFg8zQSWr0LrrwrBD7ko+iQJiSLGxbqRTV+2Z7S4r1InJ38UodEewVfk2JXDB8LpRult4xwA85a5i6f/QbiL921v5pM0H57Rfs2LsQy55bjqQ/3EXpy6iGJrDEl2y55+8p4DGpJwoFnoCixEaWnCIUYJNo4kwvl9iNy8PO8S/ntITuyEOjBmK5LLIuY5quw8yJJDxrAn3bt0umOzSIK1pcjT8JsmDvVOY/D8hPQEFDx8Pf1rHbvSJXf0ua8bYSoEpeYijGix4OD36joEG4DGRTfkY51TUrc4MkOq8YbbsAWXt1YpVy/IRTmDFjbjXw+VNiQodNR6A1NAZiXC2KlhpDEA+7rrywpd/2BFw1XrTaNBO4EQ34B7g2RhDvPPpmkwx9l7+jdf/TIIPFc9r/c7uksEEkfdTdwKcOULK9O2E9ea6NYtIkrkDfhfkLqt7Ay8uk+R5pH2t6uzeu8XcI+rb8/gCc8hYPQvHvTRTisUktaWakPfdvgpjmyaVTtjHQ7zwIhjPymLIkUzzmhyiHH7638fVJvryOAMWP7P44aqvDrygiSw8c9AGp+4zT4nbzM9gxcWRPv95gOsMv6JyjFTsEiX4KzyTHRNsXP2LV0e8TO3/o8JajDVBx/HNxAM21YPAkDUpWdaSUea4ywUkH9Tj4w6dzQaG9MYTzKQfbSAOWt74APup3CsyJqmR67XMfmAGviRpIOJeluRgd9rYiS+Mk/50isuoz3acqXZ+N6wWzrATsMo/8FLWEgJ/Fyp689XHjTe2DSXb8510AcL5aNBSIERG4B7g2pqDvUXaVU1wzJPrknb3Mk/c8eBNqug+gnTYj5HnuJ8Ne/AxKonItWM187d2bCCWv7y8SwEhTh6M10mdYJuC25AAW+5aEMyBmxwXHhOuRQkYSMjMtn8xjTyZgcWRId8EgAn08XrLpCb0HGTXw7qYnuezhb/28lvHEduSCu9i4r2QN+Ml21BBEvdjerHRYlQcZ/CReRKRFUlvkGTaH+e2EXjo3B87VeMQFsvNJyg2EO0wlmLWsBeYYIg2Q6omcx+EDafwdTagERzK5wzBjRTLTInyEsVqt0O8iQTDyqq+XQfW524AwaFQ+gJA16pWvpJ3IjZyjXZfgbiSK5zBJ7sOvPXS2ORKk1KIgWHIskQnu6pXFNvTR0fw3MrDHlYpQD8gOfBgmpGtwGtglPaRozJqdaP8TgOJzkFQ2Ak3AsJfOcGW56jQWKBEVeAe4N0dgFXiLdn+lREt04vCHvYxxrh7zpuIK1Ya3sILOQ7bT9c8Eqty918xkxFtGZQh8lex5lQrWcD/bIqckSa78LrdncpvGh2ygdwOfmkUogtIB7aJQr9vjObhGf//Rt1xJArqQDMLzFnaT7iCRzEjXsFMPk0s4AdAa6IehER4fZEXaPc/P3yMFFb3vlK0/LxJYwo3DbtJbGWU71JoAhrYRsnHZvk2uX2MNHvu6PTttj6BOOSSB1NsTyvLJv4cX2v4ffFhemQn0TeTWpn5Lq7tfJBjiGUyoivZdCDwJ16fYLLOsSn/s8+IGO8y2RULxV8lw2HuuV6/JSAEHqemP1wW0bywVoezx1MiHkSR7OoUi3xYWFV9hRFu2qSnnAPzmZxa6TCNX0vnw8m7iYzsoomED/fHNOkZ/bdOMkkg3nNnuiH5tmUKupEtLh+JAkgyIghHrusfMLmYsZkVPgePC6jQVCBEZOAe4NsbhUwkgy7Rm8ZAHxfEL/jGahHd6jL4m3LTMfkWMtck/ANQpnT3fmjk3fC2f+vsKYwGF+CM8EsuvPASVv4dpE+TH5bJ62Nu+xoyGZpSW5LmhTI6/s65f9AIcwKBZe9VLL6YYtfKoVN+JzFm4LrpxTcn6/7Onmi0gyVSOtQIQqiO20x6yA93a11pEvESUfWbRE+itk++j4NRFZbIbzqMyv7/4tyxghfAMsPh/HVw6+na74C5ONNVg3UkZapLD1m0Lq8WL3hp7C11dsHeclMlZCj0OIIoy1h5wUVXTNvEhXcoHITka77GhxbTipv0Ybbo+nqM3dQKQvWxhAQyz6+wZGo9c6wVGl9Az1nm3fLXOlcBJqHsuhOfPe46wmKYXnldLqvi3U767HYFW8mOgdf+AOzPvnga3fn7Br3gTlOm9QrGHAY687kK8IRI68=","2"
"","","","","","instructions","15","166869","0.0-7.0","rcf04qlzvy03k5j","rcf04qlzvy03k5j-2024-01-29-03-19-20","1331","","[{""page_index"":0,""viewing_time"":1331}]","","",""
"","","","","","image-button-response","16","168678","0.0-8.0","rcf04qlzvy03k5j","rcf04qlzvy03k5j-2024-01-29-03-19-20","null","","","[]","null",""
"","","","","","image-button-response","17","173183","0.0-9.0-0.0","rcf04qlzvy03k5j","rcf04qlzvy03k5j-2024-01-29-03-19-20","null","","","images/list_1/control_1/10_Jennifer_Lawrence_f.png","null",""
"","","","","","image-button-response","18","175886","0.0-9.0-1.0","rcf04qlzvy03k5j","rcf04qlzvy03k5j-2024-01-29-03-19-20","null","","","images/list_1/control_1/10_Jennifer_Lawrence_f.png","null",""
"","","","","","image-button-response","19","177694","0.0-9.0-2.0","rcf04qlzvy03k5j","rcf04qlzvy03k5j-2024-01-29-03-19-20","null","","","[]","null",""
"","","","","","image-button-response","20","182200","0.0-9.0-0.1","rcf04qlzvy03k5j","rcf04qlzvy03k5j-2024-01-29-03-19-20","null","","","images/list_1/control_1/5_Sean_Penn_f.png","null",""
"","","","","","image-button-response","21","182834","0.0-9.0-1.1","rcf04qlzvy03k5j","rcf04qlzvy03k5j-2024-01-29-03-19-20","632","","","images/list_1/control_1/5_Sean_Penn_f.png","0",""
"","","","","","image-button-response","22","184641","0.0-9.0-2.1","rcf04qlzvy03k5j","rcf04qlzvy03k5j-2024-01-29-03-19-20","null","","","[]","null",""
"","","","","","image-button-response","23","189145","0.0-9.0-0.2","rcf04qlzvy03k5j","rcf04qlzvy03k5j-2024-01-29-03-19-20","null","","","images/list_1/control_1/6__Brooke_Shields_f.png","null",""
"","","","","","image-button-response","24","190084","0.0-9.0-1.2","rcf04qlzvy03k5j","rcf04qlzvy03k5j-2024-01-29-03-19-20","937","","","images/list_1/control_1/6__Brooke_Shields_f.png","1",""
"","","","","","image-button-response","25","191889","0.0-9.0-2.2","rcf04qlzvy03k5j","rcf04qlzvy03k5j-2024-01-29-03-19-20","null","","","[]","null",""
"","","","","","image-button-response","26","196393","0.0-9.0-0.3","rcf04qlzvy03k5j","rcf04qlzvy03k5j-2024-01-29-03-19-20","null","","","images/list_1/control_1/12_Halle_Bailey_f.png","null",""
"","","","","","image-button-response","27","197613","0.0-9.0-1.3","rcf04qlzvy03k5j","rcf04qlzvy03k5j-2024-01-29-03-19-20","1219","","","images/list_1/control_1/12_Halle_Bailey_f.png","1",""
"","","","","","image-button-response","28","199417","0.0-9.0-2.3","rcf04qlzvy03k5j","rcf04qlzvy03k5j-2024-01-29-03-19-20","null","","","[]","null",""
"","","","","","image-button-response","29","203920","0.0-9.0-0.4","rcf04qlzvy03k5j","rcf04qlzvy03k5j-2024-01-29-03-19-20","null","","","images/list_1/control_1/11_Timothee_Chalamet_f.png","null",""
"","","","","","image-button-response","30","204800","0.0-9.0-1.4","rcf04qlzvy03k5j","rcf04qlzvy03k5j-2024-01-29-03-19-20","879","","","images/list_1/control_1/11_Timothee_Chalamet_f.png","1",""
"","","","","","image-button-response","31","206608","0.0-9.0-2.4","rcf04qlzvy03k5j","rcf04qlzvy03k5j-2024-01-29-03-19-20","null","","","[]","null",""
"","","","","","image-button-response","32","211112","0.0-9.0-0.5","rcf04qlzvy03k5j","rcf04qlzvy03k5j-2024-01-29-03-19-20","null","","","images/list_1/control_1/4_Stevie_Wonder_f.png","null",""
"","","","","","image-button-response","33","211732","0.0-9.0-1.5","rcf04qlzvy03k5j","rcf04qlzvy03k5j-2024-01-29-03-19-20","619","","","images/list_1/control_1/4_Stevie_Wonder_f.png","1",""
"","","","","","image-button-response","34","213536","0.0-9.0-2.5","rcf04qlzvy03k5j","rcf04qlzvy03k5j-2024-01-29-03-19-20","null","","","[]","null",""
"","","","","","image-button-response","35","218045","0.0-9.0-0.6","rcf04qlzvy03k5j","rcf04qlzvy03k5j-2024-01-29-03-19-20","null","","","images/list_1/control_1/2_Julie_Andrews_f.png","null",""
"","","","","","image-button-response","36","220753","0.0-9.0-1.6","rcf04qlzvy03k5j","rcf04qlzvy03k5j-2024-01-29-03-19-20","null","","","images/list_1/control_1/2_Julie_Andrews_f.png","null",""
"","","","","","image-button-response","37","222561","0.0-9.0-2.6","rcf04qlzvy03k5j","rcf04qlzvy03k5j-2024-01-29-03-19-20","null","","","[]","null",""
"","","","","","image-button-response","38","227064","0.0-9.0-0.7","rcf04qlzvy03k5j","rcf04qlzvy03k5j-2024-01-29-03-19-20","null","","","images/list_1/control_1/9_Kristen_Bell_f.png","null",""
"","","","","","image-button-response","39","227916","0.0-9.0-1.7","rcf04qlzvy03k5j","rcf04qlzvy03k5j-2024-01-29-03-19-20","849","","","images/list_1/control_1/9_Kristen_Bell_f.png","1",""
"","","","","","image-button-response","40","229720","0.0-9.0-2.7","rcf04qlzvy03k5j","rcf04qlzvy03k5j-2024-01-29-03-19-20","null","","","[]","null",""
"","","","","","image-button-response","41","234225","0.0-9.0-0.8","rcf04qlzvy03k5j","rcf04qlzvy03k5j-2024-01-29-03-19-20","null","","","images/list_1/control_1/8__Pedro_Pascal_f.png","null",""
"","","","","","image-button-response","42","235997","0.0-9.0-1.8","rcf04qlzvy03k5j","rcf04qlzvy03k5j-2024-01-29-03-19-20","1771","","","images/list_1/control_1/8__Pedro_Pascal_f.png","0",""
"","","","","","image-button-response","43","237801","0.0-9.0-2.8","rcf04qlzvy03k5j","rcf04qlzvy03k5j-2024-01-29-03-19-20","null","","","[]","null",""
"","","","","","image-button-response","44","242309","0.0-9.0-0.9","rcf04qlzvy03k5j","rcf04qlzvy03k5j-2024-01-29-03-19-20","null","","","images/list_1/control_1/3_Patrick_Stewart_f.png","null",""
"","","","","","image-button-response","45","242909","0.0-9.0-1.9","rcf04qlzvy03k5j","rcf04qlzvy03k5j-2024-01-29-03-19-20","598","","","images/list_1/control_1/3_Patrick_Stewart_f.png","0",""
"","","","","","image-button-response","46","244715","0.0-9.0-2.9","rcf04qlzvy03k5j","rcf04qlzvy03k5j-2024-01-29-03-19-20","null","","","[]","null",""
"","","","","","image-button-response","47","249218","0.0-9.0-0.10","rcf04qlzvy03k5j","rcf04qlzvy03k5j-2024-01-29-03-19-20","null","","","images/list_1/control_1/7_Tina_Fey_f.png","null",""
"","","","","","image-button-response","48","251759","0.0-9.0-1.10","rcf04qlzvy03k5j","rcf04qlzvy03k5j-2024-01-29-03-19-20","2539","","","images/list_1/control_1/7_Tina_Fey_f.png","1",""
"","","","","","image-button-response","49","253562","0.0-9.0-2.10","rcf04qlzvy03k5j","rcf04qlzvy03k5j-2024-01-29-03-19-20","null","","","[]","null",""
"","","","","","image-button-response","50","258067","0.0-9.0-0.11","rcf04qlzvy03k5j","rcf04qlzvy03k5j-2024-01-29-03-19-20","null","","","images/list_1/control_1/1_Clint_Eastwood_f.png","null",""
"","","","","","image-button-response","51","260770","0.0-9.0-1.11","rcf04qlzvy03k5j","rcf04qlzvy03k5j-2024-01-29-03-19-20","null","","","images/list_1/control_1/1_Clint_Eastwood_f.png","null",""
"","","","","","image-button-response","52","262578","0.0-9.0-2.11","rcf04qlzvy03k5j","rcf04qlzvy03k5j-2024-01-29-03-19-20","null","","","[]","null",""
"","","","","","html-audio-response","53","284051","0.0-10.0","rcf04qlzvy03k5j","rcf04qlzvy03k5j-2024-01-29-03-19-20","14093","","","<span style=""color: red; font-size: 24px""> NOW RECORDING</span>
        <p>Please say out loud the names of the celebrities you saw. The names can be said in any order.</p>","GkXfo59ChoEBQveBAULygQRC84EIQoKEd2VibUKHgQRChYECGFOAZwH/////////FUmpZpkq17GDD0JATYCGQ2hyb21lV0GGQ2hyb21lFlSua7+uvdeBAXPFh6HpkLz2oNqDgQKGhkFfT1BVU2Oik09wdXNIZWFkAQEAAIC7AAAAAADhjbWERzuAAJ+BAWJkgSAfQ7Z1Af/////////ngQCjQU6BAACAe4NtawM+FFLQUgJ/6DeXHPBUDfGjaqem4v3RfF2dBQYmCM5ZUrFBJqyE4yC6NH5Mv58IcHjVXTdpAYR3W0uuco6LsiXfDq4KLwn8qC4pUeLcoLNRYdtEymAFaRnpoScCHNGGHo/bGcnMIo0MIBjo7Ase8u7WfKtN6hN7+U/RXEiqdH/I3wSbGS44+3ENpuNz4yhRZVbMB3PngcP6uoRiGy2xf1Nzi0Cwee0Wz4gnzI9XmkBe5BoLcYzTwNoXTYOpbOTNt1VhHpmU5hiPrflcA1iK5KDgh0g1j4Z7nh6qEP1Qaa8a4nq5W/WXeR8sIIr2lo57RPqqPuak7QcLFSuxgzWcOtbQu/Xqgraf/wQsrXEVgsJ0jBsgn9HQ6On7sOiEGBRFhsy8206e2cEDpX/TnIu4a8G9JdLOORVgXT29sWvfgzwtmw3SOPW3o0FUgQA8gHuDbHAbuVa19gzjduw2ubuMxG0DZyP4V33BhZtaxWtjmbzrIKJzNS3YXjL+xdM1xThwEBwquLarOBc3JbXVAIXxIKRWoE2V/zZS4JkMuYVyKQKGQw2UwEbdebR6kD5eI4KI3ljindGc6MJp7xPUb7kCADqegQEhy1b/L9JWXTma/IaA8sxtwXPswzyp6oolP+ssoXqyWs+LEI5PK7UvbmxFVlPbykQGLFjVn3BmkXaRE0IqYdN025HkEtsoCVtL7wmsqsrFNZ54o7FVjnv9TGXYSxMZqSeNBnBW0t6KqFSkFYP22m6Ax0Al/RXa1N8CtNJQlL2EOZ2wHmI85XEAJ/JtOqGOP7YGwHWi5jGE/G9yk6t4nIRBs5+b7CVueSRVZYg+2cYz6nvn2k6Xu0ZY1rtaJHzf1gVSqNvEnWiyOMX8mFRVNB5Vb0vLbwQP93S4KqNBTIEAeIB7g3lngCu9ZBly1jEkW9ije4VymkFoSNFWxWSgJq72BaoxSJg8qCHFs8jmRnb/a87zvrRKdWL/QW/U0VxIcCmUrwJwfrMs/NcIBs7iKFoLGZr5oV/lvWnlGvg/fPWnOtjc26XZom8J1Z7Si9L7G2CNrXLkqfQliyBHi0T3pxVeQggAz9aPoXvNhv3ewCHO4VbaYHzDEi8//zMB49wLZMrzv1XvPkcaoYqoWxjd11Lnm6VIsVQradTINHUJ5REkYiHXrAouGt6dnV96ZHzr8uVVPWUCLICoBGCcSijczSa1VH6PY50SOg/rDWuJU5pVNXV4dFIPZ6C7vTR6dE+vAYjQWBe6aVI88qL/FxTS6LIWIeQzBqO7V8C/HatWiacP2wSNpuMI3L0pH3E1WikU3mwTBrj4MW4wZj/Bs1057Fy9NhYjgiiSZWOko0FLgQC0gHuDb2wSDHiXATWZDJkQV+HxogOC1DZkXSWymZ18d82va62OXNp65CzUjv0KNQ7Rr/BvLmwbae+iNXVv5ya9nFbuapPuX9DLuwdyfMNSXJou6Uf/bDB/lO1yIArgRWj6zrQyqOYUrCcRILNvQkznfnIRKt8SD9NZwRyqEG/ol/1wR9adasufu6+yEoNTj0OKcKArZx+PXac/S2cBrLrSovVOdslZczmkLzOkg2TvhOG9nNcUHiqZLVp3lBKR3YYfAmKVDfTq6yBiojYuFhypGDukNvb1bstX1+oet8G1YGUSD9Q4cdek6tVQCowjjx2e/WpgUer7IybIYMU9Omv/bvimtrl0Ggu1+NujO55gwMWBZXmUdjMjpfhOBc5jLzzmjEOOlHdoIZMdxbPR3Et7Cok+aIUlk4yPpb22PqlUWXs4jvY7LPIjJaNBRIEA8IB7g2lqEVM5uG3i7qbqzn6eQVmrcJ6LELMeWhN6JyvSbhW2NZ72MmWYNLaBtbM3Lp4ac8a2dgurnv+vm4eCmUHoARXp+KgqCGFibC9mrZDQXZeaUuQ0Fd/4hsHNKcJvcukaPKOudG5kX8dNKIMeEg9pTX4ZOj0YwRmgktoln1KJLqbH6b/Luiw9YeWZuay57s++BYXxpDrgxVq0GP9rPlXFm2HkHfN1GVAN8/i+GMBuOtt3A+Y8vom75tkSkehp5V1LwXGaaMKz6XWjMx2HDqbF5FLPYFVLbhJWRdJtZHIy4MOh0cnE5Wgra4GoprXJwQldt/m7GKwUy8p/EPIXhykRYukFEUcw8yQZDlEpkcDDF616gz73Eph24tmrreZ9Xz/BnSlqtLI/5DPerIGLeduz4TyI5B9f7k6M8S7X0K6C3qNBP4EBLIB7g2tjEg8CTSWm+QcLKAi/mN35pzo54oYqVccI3w+xZkdHCnmiFz7dxOpoew5MEJakPuQBly/bBk1WcwCM/oePHp6ek7Y/07O/EJsBQ6IEmY/p92RcjlPRpZaRjNMa9YPT8K4TOE0oRIj208tG41USD2nI8l2ekcOxCA7jeWRFuBtCH/yK5ARTjfy3RWHHwKez0OFX2fTWQgQPu6zk0+zaPeeoKrkqWYHrDqD/kftSS1UaZlR+9E2YguDr5o2eCd+1GYBAupBMCqWDqoeoOT2Gy50SD2s6ABI1cNnC5glmjwsrgurOjDOoSbrXmZdB628BKOfiLdhq6siv0v5fKg/LI31RqtigDrmscfJSP7tzZd38VS0gMRgYCMYzuRJgrfbWhmhCa0i1VAzmCO39f9YxjvtdiCr0ChdxA6WjQTeBAWeAe4NhYxIPWYDsrJKln3KUP4BdxumpQ6m432kcZciCgxYpyYOOxkR4og8ZPTQyYWqc8plDh1Anpnjpmpj2agleH1XxC6Q7JvVQFEGBu130r9Nz8aYVklVauu+rsM8RDywZ/ou9gp4RrTLEYzGIggkAR+6GNN4GWfn9zGYYcrCYD3iigBw7mWfEvoMgW2DtMrt4xr0j8hdhIwS7dc8CV0C3X3n0eghSve+3+LcF8/elolg4PIEE88Vt6TWMaB35x4JuuV5QBcMPa98O9JTAPuNLCdKLKZLSiOdjLa2yH+Xbo2xGjXArSE3g0UFV5y04aFDCFCDdbN1PAP1KHhlu3ATiqlp/6n0kbppn2ddXUo5b+PSUxtdfvNpFdAnZ127EebHaEStMM2uEIU3nga+zNU9gEzYKnaNBN4EBo4B7g2NjDuppMDHTjnYC1ypxvOA73cE9rQE4zmh6VarmuBM3c2Kr7o02vGJjsD9tYalNR84Ry5d3mO9jBnjG/YeL3mYqua0SN0qMbMxT0AyAuMcNc5Ua8gIeKf8gBvefYsQ9JTL8unueDvSbUsPvIFryJ+YTjYA7m1x+vOPAYSlnEeZqFzMoPEpgtYRyMQgsuYG/1HljFGnbJDpULNXWbEw2MXghNxlslOP65poeEVBG1H56FH3Li/HfcmTLFaAxtFQA0+TJ5fTGRSslDueyVfhiaTsX37wKmGB/OoU+pA4trFfIvfL7q/IZDdrD0g6JhWAlQGZkOgQ4WZ+/mIzfyMRlfUBSGy31Z8EIAixvzIKfqs5Fe9yL8HYkn1UDnCQ8hVXJrKvKM7+gQmmx96M7CebDGQNdo0FXgQHfgHuDdHGGNOt8bDljQlU1Pe67MF6rbJvNCu1xC+zP+hXy8jEZuFVHOwv1u0Jw+ouFpMBcY17vPVsB912KdlEUeHvTHmLlmZqhyAUcSdD5KVfDA09lidPINrrJ7f298NYzDXt/CI3i48Mk2A3ctjPp6B3aIogy66nLpw71/WpaXzRUSoTbTWBUdztIFDuXVt4A70bE7W990RcV2TlVpUqpxcwyG3wW3nZ2TmnWcKI3Ev7xPRtGT9ZIYqR4YC/50dtgzE5zQlDBjHfRVA/iYASpO+7xTk7p0xZkZp+n2TJ1baOSFfahB4g8I2scEg/pWQO3TeT7mrZpv2/YzjcM82dQ+YR8H9Vdr+89nNkFC5j0iwZfFCOWrH6BI5aDTj6k1cSNQcxc9TObIn6Z0rGmTSLiEqn7IHg0k/uYJ7TM2PLtPqLFj8vZKUGA2GQZtVYr/DOHA03zl6NBQoECG4B7g3BoEju9bLJYpVN3hLybfsU4HkSJKeE3/PBl6f4zsWfz37PA7u4jlyysLl6cVzUxRvb01F0MKL472ic2qHIQHXsQT7MumkAoh1T/r1beUQSj1X0jJ7foFNNo0pvMe3vta56NXrtfeie6wrX+PBRJ+90L0xIP2tE0o2+uQuje0JfPe9wuUF88RUSVzJzGkPmgRzYhZegU+A0DTh1RNPBvLd3mMcsix9D/Lo34XGi1aVYR0VJNCLEdXmb293AjzfCBaqiSvPMOzxkjtCygW6oGflE6YLnqA1BN6/MxEhu2OCzOP2/4Mk6upKmpaU3tJx2JufOSUY9f9H7iBwUhRP3slMOD0a6/ugv6NntTqsJw3INPhESBN9uIXJymL8nYkh0HOuouZgB18xuA/BfspGhFU1N5fLDEjZySY4Hri16jQUWBAliAe4NnaxIPVPektA8pUne3qkGsWRCHm2nOobCdq5Ks4THi7mlLHeek1oQN0mixtD7rlk8iB/ZePl8xwZinGQir+UW5NGGaUvrfIhWMJ3+TH501JOzYc7/GIqPa4NhVhd3b06uK3PO0hrViI5URrdlbpraF3SsmV2+kQOZOwXu76BA/KUXSDQPDR0CGCXrtX5Gfj3IbgBBcq+ySBbDefKAOmDCdNXbLZnsQuYxjb3jf20BGrkX8C1H7Oz2fTQ16QEqCgooeJ0/8U7ILeelDQ7XJ+1lWNRrzJg70D/22x85xNRMQGKhLgs0X6o/UQfe2kjzxYUTaJIn7ulcSIAHHLEIieQiSqQB3hq5W5WQdaCoJXUHZ1lu9rFUwoHc2MEeqH3DnG3nqils0iTRu/iSNqNdO7qTH4uwTZXIH6SjhsZ55bWMWo0FKgQKTgHuDcGoPjideaAcwz5+sxUoHIgFnFKOVeCIIgifIF3gqdPjWnSN6Ua9/9gMwONK0XCCOkwnKslHRcz6J+jhjW2+F0uXTcYm4Xqr13s/3W4Cplkxtj+TjsUQIMG46g+2gbC4N8u/Pw49ypxsPrpU+RZrOSkNdEjoQB1akR8Gu/6ZxE7Z5+3Pbeui1DL/0PSnHbNDOxfNJAvlqOFvu8oUa0DH7e55yaqJ1tPJmJEIMYUquJOcHiutUlpzEaFOu7lUDTPC84y6Ns8h4wV4ZYS3it5CU17GTIjbTulDOOH0gJYZdv/ITigC/kxIRFLNto4na1qkHHTDeqOW6RBFGixaGx5coMZB2nY/cXkKlkGF2q+JIMRDgYHiOa09SFlWDOAoZofG2pt4mX3FdoRdMmXPmNd3FUmT2E+9oWvdFiBd6BZUtksGZMeuWo0FYgQLPgHuDcnOAHgBZznZl8q3jX+Z322+34hGN09v+koGllk5P235x42v5W2HOPBFYusfUgLYBI/rkseaRbJroWGtQA+ak3Y+VQg7iBjAjzPgT2lYrfjUYOcwTlnePuRiTRZogG7Bwtxvl8LUq8yQ9pqPp5Q+CPoQAi1WGX0HbMHIyLKhZWDhPV1ppe3bMgwX3Fcy8LF9SGz9/kiLO14JxR15lJQFdJ+uJDxqx6M3m1x9QDbv0PV5gbeLgBqG7hVGSCIujlN/ljULkjeQKaplfy8XpdyFJU+Fo+EuNWem6OfCVlXIhG2y6mdy6YLPthl2/8c2pPnRaZw1NmCuc4UL3Ho7i67xp9SVi0yZ58XbVeLWCkO1SPIATTHxr+DDvboQntsmsRWgw2qXpNqiW1QMGd6+a2C4T5a0Srj7SeZ7AvtXV5TFBtZ3Ddvyqaa9nv2/8yc/tvBRN41WjQTuBAwuAe4NnZRIaFy57vZsEMzBuS/7Cc2kkUrhkq4Fl3GttDdf0URmECxL4qEp0TQtxH481BcTsF2B+WolLX2ELwPFnthTCwyXjTRD4imTeYTqJeQd0v4wL66uFlulkR8/CU6867hZRO3GeFCFFi2YSGZpZlUvF1rhLFaSqgUN+2QIsquqhgzUXy5SrTgM1oRSEZO804vB89WK/2y+8m2i1rt1uT1OvDCbX4HQRwhQGa2RsfRAbbT02+DDHyq1bV/usdi8xrCfeGkL71p24LpUKPCgD1RIb9u52qw91ykwfZs3IFktg1jB8Oy5WLe9auyL3z4j6Tg6Ae7Y4zoOFNt86pTOOYHtyXUf6wFMFoz/x8vMr6s5ZAODdBevESynZWhomwWip8nERufdq0F+rGoDVlVXwqLfZaR7iex6jQTyBA0eAe4NgZxGwelZCMEQTh2P5wQuvIR0rYCHg7t4tltCL7riGOnRHZH6gf8dywMH9bBFuZxNnehek0cpn89ZXQ4oXNWFZSgeef0SOE86h1kqAO6J2Sfqw1061y3aGHJMhdHFc2liLlg71TpVqLX5/mAeSH5gzd3K5eCIsadbvkw8UORiwEVQeZ/09YJbVm/F6s6Zp8lZSV82SfDVX1yGdS1/HdopxBd6kgYw2/sJeDO1lJ5rswHDC0XsgJipuOPKWMbi1KDlMhnScpxqZo14O9yNqL5RW9nxZ50j6JxMp2lAQH82QDMlNyRF4lW6lbK/RLNXW17HgC3IywnwMY27zxGTbkAjCMVEYqkJsaay8Y5RUZC7sR0zmAXR+56wa1sok2LkUCiRCyqo8n5hiD85vLIDj6YwaNLCm2Gqmo0FegQODgHuDcnMO6tLYyVGYxsUhgx8IKdXgBSC5G+ttJrLIaFKaP7TdiocRzaWJFDoWQwjp09ajbtd0uXSjUwT/XvuVIn+gVVOlmXwflilnNF71imk48M79xsqdAu11WrOVVgEAGUoCX5HMKrYQFxqpnz/E6GXfw3/Ty9SGNmVR4XfFb/09SPbFtpr5OEFoYGuAJyKmHcu8gF0peVd2Y6uQ/rFGolwqclpogH9uC0MGfxj1GAZ4yqVyNTCDgdBgrulF2g4VISRr8pXeUMGyPSkO8gnnlWnvZQOHBqXh7PFMRAY/+69mSgWiHsH3lINdhjTsbZmT6N+2rJ6IkoDbNNps4yxD9Cm04x+X+MsOQVhcQYpCQQ7+a4VFf/RwhKtpqU6HwSPc24jtCslQxdJWf04LjM4/fOpI+S3b4fdCytiBYuZju2KNMYBQJAWXfIDl4K79G7XKaR9pN8fkWduIm92jQUeBA7+Ae4Nxaw+ZH3MYAuSFEJbgiwO2SjhkcLG9n//X8r9vPumzikAbUC8usGKp9mtjJkI5RNPSlJuLcGoGdGZpaxLQEySBGA96KbKRuc0eBre4nVV6JUgxrJfKMBAVdZyrnnRmyNkljPH0XCLHvA2pN53SDgy72mPdEhTy42haZLN0Y3vyBXLuLaTquFBjyfReYy8BNT/bS7LbeXJ1BEwMB9XT4voOMxSmRggMT9KGXBjWUstSbD/9n+eTEDBOYfnQGdPhFdfIWoAWnvsIoQgkBmca3SyXubkKrgL5QX6/a+pD8x0SGkTqFa1cWPwyNw+1eniGWV5F0tknsxQogRRARcKz7YlySUrYtUtzQ7a/5F0ltNxcJqUXu+aWxOFx8Ray8UsJOWSJ2ZRDoXGLNyS5RJjnFO7YMSTy8UrP5VO58fC5UbTjqxyjQTeBA/uAe4NoZRIZZOk2CVnzpb323E08gLIVRmODJAg4DTOSiOREmGCgFR/TEpc5ceS/Jygau9WtbSQBQlOuGFoiwsY7lERM8n3VCV81cejjVZiYue0Ij1cXs90CrnNkocaObd+ciqtNcUvcAZxymTAeEhvY7y3ITUs3xM0UdTcGhwAccuxZVrxi/Wx6lvyvHvaj62aM/1O6yR5jM7bwK5z3an7xRNjW6M+oXPNnigOQdWbuyKX5ThBNCc1eacOuqY7+2gVF/yWVT1K3IG7bFk0Jlm4wOp8SGvaBNqNGdXZky8mYAUF0lnZRrS/QCLfQfWcK/b+WAsZqbKvgtARC801sHTZWuZxLbf78McoEfSr+kWQK0hKVD0DfmP1BfyVwZS7ZmyZlBZNVw1yDcUx7W4RiHUEsAloYJKNBP4EEN4B7g2JoEeqcfUSHGht07QHuP2AwBfj3SG9ctXkpMug9B+/nkqtC9fo/bCGSCnSqJ4ur2wr6Kms1+tXDDNud9bbHXbWBAmrw/jOoFqi6eJ+Kusc8aR8spmToXwGzDViqsKeRIvyxy10PE4JNyAeAp/Yb6I8zADtGaVbykIHNI8p3oINq9PbVSSGhOh9iySaRfmcloGvDqqz6Hv1kRBP51MlKSacuJwIjzD73oXSwsXovjnOtQ3X0O2BoL/b8neVpCEowQBySWM9MIgSMAqmjXQ8VRnuKGGjJ+WM1SMtANquM14uW/xfwhyo7H8gaa9ZML4imrO307cwUYRjAAqtavsjmhi4HBZopDOu8arvo6JjEOUMVrgDRvf65MG7E5ppmPPn7Am64gDE+vWPpQQXZsWTwuYLassTF82NfIpWjQTKBBHOAe4NkXRI6RnuHXXD/bepexsXIBVqbx91XL1cY+lMQLl+cqE2H7mVTDxCzRl/J4hpZgDibqwXNecrfjVq8DBHD0bMry7mSu55yIMwrkyDrJSA1aa2uIICs02XHI5zcurCg9TLpNhrQc98SG60uwh24VPQ+2U5P4ggTy6pfrqbsdFGgu8r8CQfdfJc06QZ94r5MQwPy5XH9yVwTchoeA36C55tixa4BEVeZQAAUP87hoI7xA2HQnG6fXYF9kjZZzoM60sMme60RsLviytOJJPTzDpFB/C/j2OTDNuy9+ew1a1TuvP0GJW9kMgHXWGfxOUOTdscGCauYC0FKOr/6fpbLhpgDBnn4nQ+UC53/PxZNbrQfvrz7h3cn3do0FMaHolA4AnZDwrPwf3zjpdYCQ5WjQU+BBK+Ae4Nyaw7qObNrNuA8upgOyttRfDiX2KvdhVBJ16OrifV7qZKyh8ohvvtS5Wci7Pd6j4PnY1qVaxm/q8AvmsWIewYRsx57hHEadJQPNUrQYp0raTJuaxl5y6dcmxgrrJCKP+zV1V4l0ei/fScsCf+rSehRjx4ynRIfddxCOOMMkv1J9wDPUgfx5G6h4ZdWE4aoXAOXe/2uO9/9IUMEmTpqQWF01jQ0q/nphN0Dc1QUUI1vj5tC9FFPOpsTgDfKS3+3GL8OtdDvCMTFXWy8IeBm2cWehrcipR7X6IjMA83I2kMXEhrbqICr1DCIPhfFJsQMoZnD3kElANi0TeHmjhKku7IziJhbt7lGu2viuX3yBIatdAl6WbxOKZVsAUas9i7Q8zDk7BKCpcv0EeH5IVuJ01AbZDcVZ2v41aJfR0ClbXqXE8p96/R/eyQEHqNBPYEE64B7g2xjEg9pMDDg06vW+OLWUPJVhRRRaVhU2x136l4CmIpeZiYL7hZ1+WBNtNaMt5TpO5H5EFMzWB2lEAuFq4kGwY+uPfMAXyaKoq2HkZdJL9qVNnFFeYT4QD2YyaYM65uAtbFbiGOPUN77bN3tcMttEhoZMNsh514OOyiNujMfLbAn+2SYlJiJe+1F4jTDl00aVWTURrZCfsUF1VUZTPHoZ6OQJiv1NZqYcKaJdV3CouT7SmT6WwCpvkjAgbkBgTSjOq7B0VByYmAosQaCdju7tctfEg/S2jjSv3pJL1AgInF+YFya+5hyR0GTssZwTg0caskpWPD8B7rZOUfcM3WqPE7AY0dok7fOghu1/Qt+GqvV+saglyLVsvrZvS0gLVpnbvnuhvwZBsQ9vw7gSrhLNKVvLN2hVQPco0FcgQUngHuDdnGGYK1Oxf2ElhAie5SXupcx344A7NTmC6I1rilvsnJs61toaHEtSsVbe8D9CNTzEqnu/XU2kB0kFHtlUVzcr9+EynHIEknZU4DokE5oJC6mst9bhigKXxe5w5o7sbEBBef1+E9mil8HxOlbyfVOJ/sNKgirPnqVhoLmucnRk/fUCc76KE8mIqY1GrXPU4AawID6t1EZLEhnARPcDcWp52cjE4rZPJ29yMYgwK+Mb0MNxJVE5vhF35LQAnQpJBW1Ku6gpfZA8TmlBzxEyhWw65xxDfPjpAml/bLymK7dM0x+4bNJ8c4Wo56GhQ38nSu/rkbLfqrLKHX8xTpEs8xx5M8JYBA0MGdo6mRIzSsZRrlzDUykpH3Zzy3HKLoa5KDBJctKho8dAVzUPbu32gvlMf6tRCFhtoq4LlLOEJB1qbfKhYWFBz+3zF3y2jQ2LLUnxeb17JOdo0FFgQVjgHuDb2YVP7+xjsnghROLt47UZgjuB5LlSCSfiBvmO6eDBDD441Ag2/rwEtLrD1JewNeD6cC+x4cFrs7tX9MtInWjBcbsiQIm5HiD5nfc+JETJoR1Clb9+QuSEnYKb54jSok8eTHB5efKtWC1qs45G2zHC1cVPxxoz0yZud+1joxuLZUQodjzO6nWyD5UecVF6HJVcrMRlWeyzUvaglVodwV4mQeQCS4Sg14pz9vfCohoioyQPtXLIW0DJCppFS3dXNEixl5oustg9lcgoj7xAPx+V0M6efMdu6QUZFnOTtXUJPj0TRLcUUkqVznzQtTLaPgZpdNPIID/85JYQ81XDTcL5ROc+5bHiAQ1Ytr2kAykLI4XgTpqbPa44XRRiIopUx2RQGI5vRP8RJhn0zmMmdPx4fof8alGPI5V5UnPXfWTV6NBX4EFn4B7g3BsEg/UKZ1bFJ0wjsJq0V2wVUbB5DNAW4nPK3l8nM1CY4mNo8Vyt7qiCHqMmvROOYrgYG1DJwN+05GdgnE6dl9VNEY8VGGu/nMMlNhBCVSgnUyflfCOHjd7oREgbnAbjQ2mobdgyo3ZSoZ+X56sH5JqUxJYZ3dPS8iAAi8lsMVE2xp1oMy9DvqTG5Q+ltwadO08yX+cWjZTb0S5M316lVNioCtLioNkqpYYCkZV5HHjbZw+LPdIMd82oEDpS/bgjU4eRzEWKmRG73OQ7qXxbmPBK7Iipc0DYIgNd1bbqIZkYAXy9LwRrPST8olWt3UrBPtyDtNWSkCmn3a7BPjsiOUOiFdjZlB4zdsubDYQLBzxi1pEBprr0EbZCLIpoO1aWpPtn5NcFaudzr2CHMxmmd0/vax3u1F34jnDj0A+MWncODiRCaDKkugx60xh1PW+UsBXU16nhUtzZaNBnoEF24B7g4+AmNkjP7SsArzQ+C5vGHJFWEgqiRsijEl0ZQkv6WU7eROwM96zRpFHbEvRmLgqesp2Dryx5VnjjKQcOfLSRyNSDBaCfD0WPZLLszJuPx97FYm6Zzz3vBnB7Qtr0R7zRj3gWuCuazRoYagYeDoJNA97PMGEZBGfFD4G7svqCDFaUn9ipoaf3622IHtj/RQTbYiY47hZ+nk65uliWHcx9tL44vY5GorGDLu6n/gjcVEXIjWPJdi6iC/o8Y3AU30fGWEo0FIlkS8TjumU6gWWJGZsJZuk4PLlteUiJwkSMV2V6SEYexHLhnIoEXcy9cx63T9B3CkaeMCL6QjPvCykMHhGRK5PgJo9nYfqIJDojqTLlJjuO1nP9z3ORk53pJgONnFOBWhfjyUzI/McJG0pAVv3aICQHGZ4PIvVgz7LrDdLVM4rz5x2ks0zzY1i61AZDTuww8kMFBStS7zn+O6DviIq050vxGAc7+TWmr/dXG3aRxmN4Q3J/aQYDLcwZAGf/OxMUC4a1QPUAJ572KGY51Ka17TcCIStL6NBYoEGF4B7g31xgEU+9osyZy7bwPyG4DILF79gZvTHmTc4/Wn1f/LFLBo5aAF9RnppGb6LaA9bpS16Vfk6BBKK061zRJn0DXjLURleAKKNLCH+Zrdfd3hHt4KE0Nt8ScwCWnGFSu4UQ6TEVcguwiWON4Ck1TEQkdLO5l58XKFwwstwHBBsDZqG0j+vcd+/mIVKHvRrTNLq6YBo+kmR+K6LDfk7B35U3H1AEi0lkpiHmPmX8D8bQl7IVbVTgRuDGny69WRbTWyczKwjlLnOiwMkpST4IwkWhe2D7eXL7ZJozYcvw28UCEf+qJUAt+oDPhvrqbUCucwPE4bHfVwa/A0nz7WJ3/SjscGgjicGqPtxlTyaSidYVuhx28bY6GYfAkMdijDg5ryHSNjhf8SJaKcAK5RDX6ycmx/cMCksea9ai+XnwDToIsvycTCTUjLk+/17cwJfrFbh68+kspASS4n5pwrFr6NBVoEGU4B7g2pyhqsAbQPAnQ/Zi0N5ruY5ne04RGfJWZ7YldWIUnhKJf0GcZgsg552g/rdUZyhoJequeUmuYVdWkdXkOZc2RUXocCnU+3Q0yh2tC01alWLfvqBO6nt3sqASo4/nMQMp7Jd5HgDMjfTcJxUdhho/EHdYveAOJPrJP1e23ugBpxnNHimcWs1LAD4FS3eeHgTYf2kjJfgTAZfHkl9fjDJjdeQI94ZETHYGySOphdwACPXUL4t5RW8vk3uunckdHzV0GUw5KNadqyw8uNJT62Z0xyYN5njAxziQhOEbCIU+hiW+QH19gRUiIawQWLoZPVlM4bykxDwtUaxTNxdMu7sRkxQx7SxcMi2/L8WYZb20habN4PwtdLyA9gvUxCd0KSWb1ZN7UH0/U5cse234Ad67jbFiU9XgIz3XPnGb4fkaDU5un4fdCKrJzVQtnLvAS6UL6NBRIEGj4B7g2hnGDPocAIaNI7Qa5CJfipC+H8O+Tf1Sw7w/nkazLkk4prnNpIIAi+CcY0WA/wUYXC015gBF46yXjez6fU/cxU26mrLWWdHM+JfjkG1L2YKUuCfFh99pr22UKnRuPdYqmJKfOaXcDQIdK8VD3FqD9M0YO5WFu0Ngdes2lm95sQlabVI5H1LRzV6aVFrHJhaZLjXpzKxQqQfBIhoo8VcK/1RmJxohfz1FetEXHr2563aJ+XGsVrtU3fgH0oIDv4f2e/4X0b4s8k3vTeZVc4TWqtfEhoZMCAEcDI4AKoVQwusnfkpkt3bGb3nC8q8zeQQgQtIKMrmR+d8VWwLcNMmLKMGoV8RR1ZEYmquRuQgavz9VTeNReemr8URaKDxhgjlRVWqNvsA+GUNUcHjFgrAqQk/XQA5lGH8lDYy+PArlqNBcoEGy4B7g2tvEhr9NcvqZZr7dZSCqJgrW6wYhkWvhQGou9tfI6PcKh5esfCAZdA5Q9XbKyKlGHFfNINLI/4WsSbaGEU6KIYw+LE3qpsoe9RpLonfQs9Hg0OcwG/DzESVS6eiu1CwKvekhr5oAcyi3bZBM2YSbxzAOsccIPfG6sj2LdOJ//cuAumZkRsMNqL2MurQa9nM+SHuyyd1bzHMcdQb+J2WG3Yo2Y5cKhHjRjrU6R9L34GoGkLUVav5ke+gJQdtyXELASQrp3mAyLnsC6XBuaNEXtPKoU20dlHkP4HcNDeAVrv2ijy1vdIaxJNi27OK5ufiOtmZ6eEYbkWAvZVPY2Zh3WUohaHVNSgaFImHKiOJssA5PdSLPr0ggPMUkwhAzjFgHpz1WcEz/Vs9CM+BEnO1DytgN8AMCNgzp0FBVE6q4aJTq+yXPCP9iYWWKdmgStCMS0MhWV9W5od2wpZKgnO8cElR6S099wEM9r8+vz2jQaWBBweAe4OGiopIZirpjDO7JWtfHLx9ZKrNVyeBNEgH3W1VuyNccN9hlXz8pFQODw7011N7z02GFl36cSCKRCQLARfTCtUbjMsPEzM/G5V+7xicrMNlp0jucffwqyGCVwC9/ueDpleHg1EE6rRkB5+28YbFbPwn0f7JLkEkvzczAYY+KelbcZTFqVlI3nZCi5UFCAQX6hytJcSp/o0xA0i4q4cdBYt4ckQpKBhGm7sTPxmyMPV0ooX7SBaw2tmHPyXgQVL1S4lXnIrl/zs2rOGjp9klPIH5A/IxZq6zAgtfj1ayf/pjXmOFGS8sLGnHotCGH2bEOKATtXBXtjdDnAc7CjhfKB80TshPZ+6iIWP74zONrxVdmiT/i8pITkyxxGbwxjBZqhdZQsf4caZK+BWBG2zpfApXSPAGP+kDhs6kAvj1cQAmJMnqKpBPgRntoEIXb/4MeOjIGxfsejv7AtKnoC8cV/cNxzRMxn9bKNpHPyj9IN/uHTtMBS79VQUzf6yIADSLBy+veCtyGy8B7SwZshk5irwPJoYt26YcRutl3Nv97Syko0GTgQdDgHuDgISLTpQgNSTewy7ccoGOYipYttDYUEAUw2cVMp41NZTO2MmUVspCvajOG5eN/D6dM4kISTRMHYu3QHEgELADW1UolJRRy4Sc6Y5ivyU3IPCAwa58PjtcJfMgp9jxu1bseoCqVM997z6SKE3jpXR6aYHIOGZC53Jjh/05eqk3BeszpIpUc/17LHSkQXV+R4m+WdSqBxqSP466eV2Zj/0Rw9q1Vv708KQv4me0QAwBsgGwGaboMTh+B1xBXnFwKsbuWPz7SumnQ1s0wNAtswl9HTAWXEGrtkew5ybXCXzYUIAKfRdYo4xBmwO+p4+GlpDJB13MmWvHUJP4cW8FCWiYnsR32a37E4F4R9W3eSc3ldgIdz8p65rTe85vvuqTLwKl2Ywjg3B8zT9p5g+miAB/59+S2tug793NPmVguDsdS0n8FhFv8t92RFqsITXunEsVw4G4JSBZ7dWTSfjlZJ9i7gZTSK+RqEfkxyfQo7qunJbof5kVQF2Zt8WryHB4t2Qa2wOfcz2cyjaiK/0uJaNBnIEHf4B7g4aJnlsoldGJCsz4AFR2LCiiichv+ky6HBoQu6KpYaoLOHojolXatJXcAlwC2yfOHITs8fWopQ+h6tac7yzHxADdIh/aN9byvsFlqUV9KPy1cYmXGLQ9+wv/nIT03gyN96iP0egWQrcI6rI9zpDpiyzktYaYVrUWb4uQkRAP9fq/fboF/O6WBNKfigRKPqkZXrY/SXFux3lNYiazxjnLY6W7rwfWXSyyHrs8VL3PuLqs/urP5xkvNC63lfzci0Xd4XBypPL8l9gToG4D+bs/Isfyj60oHsiNmj+5wJmX4ANGAExowUDkZAoLkuyhtUQdErkLPnp4tezokj4cACoribbZFIXQwzamTbQUa1j5yXTBBKNfPjgJeAOs4a7l7a5SZWU41MpIJc3gKWh56aavfDBlex79pJ5Sbr416s8a1aD9BcJZSrCi8FV6i3xE83vSuCxS2Ejmy8YbdIsLdl3RjmJWs4SpoHxqsXlOX4UckxNHTfT0t7MRTmfLO6ttQq/MJGNCtsFw6pD1wYqKVsuuh36pD9gyctijQZOBB7uAe4OCiaXzWEfOk94GLZkdxzVGK5z4m4XAHtb9N8KzIjwiYjrSpXSbxuZzhtUdioBt5PXFvuNHnoFYgA4S/TBxiSOaHPR/DEQtkkjDNVUf1Mp9zZpjHwgvJzxWSn7/spZiDM9kieg1ijmNb/mhx5fDspdvZTK+ZQ8FXwE6RTWkmDQ/mBu7V2qjT+wFWTk2U4qVvA5GX+wT3bJpc6+aOYqS37ul9wM1bwQWCiDdGUiV94MJs55PGN2TNjdfoQ8FzBIqWeN/wLeMS06mIvLEmI4RhehHJGyClmVIU+J9lKq20SPARTLnaiQ2s/o4Y3GcaXXln6fcOU0bjp3JoZvgrburcl3rCc3Y6gE523sHiXRDXZ+T5Rl9a1rEUVgO8AscVZxDLNScoLN4ZQGiy3/H1aEu7mrDoGIYmcijBxRYIUosqGHjpI6rhKbIfGtEJUM21LBcXxQh72iB1epcQ0tYPYAZ9jbYOghQ+xNXF9hnsACNiXhdJIpqqrKJ82BRGqfiGuvwhjoJHW6b3cx0qKEMyr/io0GUgQf3gHuDfoeeUloH9uSfLs/OFUA5RgUkIWmxST60PZ4Jr5sJuf29nF4+5KAt8Gk7yK1RQthrDhEPozzUxCDSWsQpR6V9CijDcWkD0xXLMoIazEdVP/Jgcdry17HP5UYAdJBvl2B2hLFa/2BTXcyS7WqoJmBoUw1CaXN1zf0vkOTs44mmBYigKcWkAuCwxkGY7egs7iIzPjBaj/UdjHnmI86PGp1aaIslUji5dI2QTT7hNKMLSo9FBqU90vPGxWIZTBCHjrbG+SvUvjDIHQn1WIr1n+ypsnvt3gUSkMG4xvkoSrfh7fEtHbWILoCsLHixE0dI4ZFIY1X6pjXIBE8FPnPkR/zA+oyvwV6jmJ2hdRs4EZfCMIo1l9Q81lQcBGAzbNiisbDPK3JNl1YAl4jQBviuoSfqSvJb9OJA+1m4Fix5Wk5e3LjTbzvm9Gj5LUmiv9lSv2K7rryL5J3ss1GfO7yfHx/mH6yNIxSLyKlJqObyrDi37ZNBc3HHUUlc6S3ooO4gRsBTeyoYYTuOMRCEuWwFs8ijQZGBCDOAe4OIe6J7//jO4k+UKwonhqfL4sGpibFtAT91q5yCnGZ6DxHPjlKTSYVk5X3pAw+dAEC3RZ0RYFdgxObuK6K5/z7jBsHyxdbMooqFt0WYVSs68dHxYCW+5MVfTpsVJfzRaSANizysLkyqAVNfTzOgxPktA7RXLPwxpqCAVw22maoQt1KcWogi0xNQyKKiaJalLSltEwRbaxb/jM7ZGw1QdsX3lOFjw6Fq6+fGWL292agknj225kVGhFhWH8E0iz0jZdby+Z6rR1H4drq1A9vWjNsv0pduTpXGAftve44xQmeoS2nbsoOFGu/N2kVQpa/1S4J20pTMo84VqemQ5ypqf8z1Uu0NHGehDO7bpaNRYy3HBXDxTTKibQel9ejo3qoWghpwN1nneyFhnyyMbA7SXhaKAJXh5Kzxidt6z8kHeTSdNOI3yz7uOuP8tf88fS+ubrSquZLIbI2nTtzQ4GLb4fRyoXyqox8mHbm5NVcDWQzhNECnv/96ShTKRns9D/Z82mZOrjKFufzcDXlqB6NBsIEIb4B7g4qXn8SKNGoi6VnZ7xx6eSA2P+IP9InfNKUvtzKiM/w3juOPcCApMIt8A1xTt9kK/SCrMeYTCViaTO6rjIMKjd9PJWDRLIo5X0VSehk/AkkwMSqbsZmwR9yxVT4MkE4S7oV3fBqRfFN9EeyjZKBxzC8SyoAsQPJBZAbYkIhOOWNO7YkLzKzuEqHUufokgiqnM+KVL7lnZnSz8Ibv15DMz8Z2OXwXZXORduQvYtTClbMbnYmvNrVaVcvFwLMqpVpMXYFjfQqtXNM5Ipz2s2oTp6ARRS05Fzka2gbMRjnWxCYobg+g7ilfNOoU4mWngQd54X53JY4MEPnX4AKVNLwsYV/dEtY2nym0PsT9qx/KJlCS5Gqd4Ez6WxkcXSR6R86dm3mNqpCK2+8Srm44Jf8JU8EUaKl4ADYBxj02mOCA0GVoEBoUdD442GFFNBkhl60CEqXfVqT4+y742aCqY9XnoBx4s7eyvV5rFpEuqRnikfuaoeg+VW2BuxacLdzVD6WgrDAzwiNa1tsMUFo1aQDNpGg8gBeqNrgthPVu4CrvoQeo21H2jpsMf34TqaNBh4EIq4B7g4R+kgZ+TlxMlE/AZQ9cRkAVyDY9HW2yHByHwOz0fKOyVxApefu8BImCijp7ZLB4aujec4fWsaIdV03QJ1bZbycU11GGyyfGXf+ikLWDwSDa0XtqA1wWpasienc+FPW6ACNpxo1UNQtqkdKw4JNTp3S1yp7PzdPiT+zbSIJeWTVmua4qIqYkkgZii7KFA76gJ0R7z26PlNgyWFXFMGPqSi9sBX3ZXh3dkCyHa/wz1OJXEqN4zCsGeOXnDPq4ZZ4TwpIIx/Godl1WZ21VBkfwCIc/mabZ9kCPRL9hnq6LjNO4RHS9cAD8ZVlqmRRgwYNoAmbH0ogt298RHg8g9e6us6pIq1YQkdRcvFDwuF9YrvgscR51E1o4h7C37mKuQd7OfDrhsasj2xT/I5Cx7t0P8YE/gXx9Qp796/EsyeQytrfl4uPs0bPZYVFlPZMDwSy1KVF7HhqMqv78RFudfsWrteQlQa/xKbnaQPdiBvUwF+E7/l9nkxAzLtYy4mEu7HF9rX+jQYWBCOeAe4N/hIN3wZo+V4gZwz/E5BXsSAYokSJM0LUfjcSXH4H8PXS7/vbYVHJsLa0pgwL4gY0DO0rrDF8N9iNl1szaluWCTJLoiYPpdhFFMDusw/8VfelVb6UDNbXfmAP6Twfyq7R3ycTGQf7w/WHSnmy54N83ZjKHY1r36zrQYLiyBLo9NWyN7zcIZ1M0se6ge92lj6pCFbMGHAD7z3b7N/sxMkFpbA1Q730Qf4E4BUPU2BS11tc/0aBmJrtHuM68rbSRDQFZyNYcG/puTDKiDzlRVeISPJu33qzenTvroePnNJonXe+uOZRvMGuyj1w7f2ntAiUTHXyu5N/oB4QCyDHQw0yXaB+cU12CQ2sbvmR8tFVgC73/i9PNDSB4njmoIz4pb3zqP1T7pMWbpYhNIVVC14k/YoAhNSjeUSqA6CwhSRoNOCYBmuIeZIppYVyyznQlLFAnY1T1lycI6jneMFq5j7IWM4ia8rybf0Y681X8FOCv3KMaWRLaH0ISWb5I4pknZaNBjoEJI4B7g36EjE8jYKriIcNTTh+z2MNmQN8L42q0E798e1RQE2bNkHW/UpTE3N7g1VzsyNcy8UPAIramiygqMkdDtjQyYIkkSWjtO6gGk9xcCcFA4c+n6l+yMbuqGiznkFe935eIUNoD5UqugdGm22JJ0gvH0UWmG0Q8LVf7B6Zr5pqy7/hlgfTeq6+K/epJq8FIgKLQUIGBToqPK/tNsc3DPbwLXPMbjWBXFet+S57aEZkyTE+bCfkNHbhqbgl4Hf93NhrvsdXi67WtGQ6fFaOs0uK7GZjmu3XiyIRW7cdB76xizmAyoD1ewwtRHKwkpPWi9cIAp1iYTFHJPTMEYdN2vWlDY86NtoxKn+1Gxi5vkCF9fHZzaOoXg6e1SgC5ic1iA3lm93BiLIie6Um3vsqpQS2v5OsxVbwYNVPUelrv+eWLBz9L4RNQcN5uhyDxWQFl2wqRLVDk+wJiW3QV5h3Rtyr4xRvrFdx94CVtT9LFQ8hc4fL5TVZFWDdIwB+/ERvRwcnzWcQ7xH5v36yco0GZgQlfgHuDgoqf8eJ+ePpxtuY+8Aa4BJBMdVQt6S+93hS5WMZ5U6ArTOE+7XRoMJHASLUtkVL1dB2nCU47em2rMN/RCSlQYsXVRFad2ETvv+FIb4s+UbRqKZdGMuraVeijCz0vT6YB0GCJsbA50/oiz0PSXMqnQ8UITmrNkxo4iTtmfwJm3fOwumDkn+0uMKj8HW//R8rlWFFl5F0g1gLf+byqmYgO8Zr9LeJnX4HmruOYnJOFpefQmw0fQXBdp/Sb0wv6sTHZ/O3EOAfWu7e257f4D9bi1IA3+9W1Wi7SG1F8I5q2x9LusvOvFuyCsmyGj+/lV79FjhO+59FeA81PJY2oUNAMjlBlWSwfovmjr3GoFmZMoGDUZhDRNaMlBKcz8kt2O2anUpeGxxZQr5ksjbYBFYNA354XNWXeU14Y8izcEdpqCEMlAKu4ySunj3Ve67dlYPADGHHhdHuVahr7CS7bXHQ1tMnVU2E3rGDz90YWe1lcUbvclS1LGhzdDrhzdYiI83KK7jIfvz4RRcAvD8TeipJ2JdfwoqNBlIEJm4B7g36LoUOSTlgNE52xIPSfzoaWcm1yKzXu2QIvzqrCOjdr4b9JIqda9Y5FKXQGVAfJGPwVt1lDROs1WV6GDe7ApLsGObHP7Lut1oX4tepK2+VrSVtCAzAmTtSPHmkjXyHPkgYfxLFX5bgR1XMmnxEDuVcgzW/j2uHjOUQrPHZPjXxToVtFpIfM7L8Zk5oTcJt8H5Cn2o7wUB6tnhOdMnM9jc6Z/3tEJOVEBRIzDTnIlgnweLKgvXibHmAuISZmUIXX8e86NUenMRRDE2a3MZD4ZdxH0m+MRvBtSy9BVJJq0DzfBMI3Lu8Q/hOZIS9bAAFrrj2Vk6cFtgupU1eRfxwBALEEQHwa1isoVa4MZKJTCv5vqY1P6twSM20ME+sWpsbgpB4tswdu1gBz1SexD3BU4Qa4JWkrEAQBDwh49pWVHltSNaxSfPPjqtSfnWCTbPhGEgyDSTFZzEz0YAizSZ+y9Un4hrvmsdusLhzSS7ZHZygnu2gifIkPaUC7m+I1HazYNtoGzcNThSgNjBmyEgzUo0GIgQnXgHuDfIGgzxRIJTDWDwISESJk9kGdtmNvbvLI0kJh+yfRg2y3vZBRvM0Y481mIC+bZuoytk8qdEy7Luzv7Mg7A58EmN6TQmbT4KcFGxomj4GCDaacGDDqQcrCKUEgBMILJzYmBcQqYxWZg1x5kSv3TQn6nH+ZeTRvdVy29p34gFMbnIlyp2yIzm9LCNRZT0Xw8opNyoiPjQc9DxD7q6PDQbd3o5WO1v/Hkr+9ST5G0dVOBMZ5yDN1UzXUlvutDV5rE6AXZ0PKNcDxwCvu7IBvSPJFoAmSZr15eDavCF6B5HGmXjZMu8PnPaEGY3SeNPQyKnM3WupIlB7NVjozFaL1NSNam3n0zVbKkePi9xzcYr1u+ZBopM5y/fVqWlBF0mSMvRJMkVFcYz1Iz6NYG3T6Ve5HKzaMLwAkaR1GbNTb21VmfV1dl9UIwto+CpiqxxCbOW5ThkY5DTMTYoIFYngobQ1ZEXqtUBKbxPWJ+jFG0SREPMlRPVH3zxrFjE930sq4onCwzVqjQZmBChOAe4ONiJqzAhZJvvnO6qwP70ZYlrbjl+vfiWl4ohaIzdHKbbAf1xm587xr4ElYOca+xzEijxib05ckqJ+4zCpJsP3WoVFTn5qIaLe+ILYTR887LAygleU2lw2phCbSENknMchUze1AhI6JCisPdEvgdmFAQyxZWFQER5ySVll5XW5V/WOyRo0W1I+fbbxEvQybVJq49nMs4rv6bJyHIj+Cz7jOrpH5rYbCJs9cagfIt0rbfN682bxXvakwh4n4MN2Pg5VVuUeVgmBhpkyZ5BMbyortz7bA+Ve+FJNrwLl+vVFEmsXAIMcVzNhil/BZt4hnReB5bclbnTBRsY4OTKdKv+ow2vgJzyDkKXkJ/uuMl/N+Omw0unOTI5SanT1syWz+wbilfVrF2mFO0N17Or5S2nc4QUWMJHwellpDxotwYGrqYd4XHEOvJCGyo31xnY5BHw8Sl2M8bidsmxKAooBBawHr8EdjLjb9tnG/p+xYsKpkXo2Lr4AS/B+jxbbGh7diZxrZQ99vNHjpT5dELL60caHmU8ubo0F0gQpPgHuDe3mZvtOUlHeyt1wXAyKPGg4awEILR+H2WLxXmvJ95OOGrVT8Ja1IUIUYMxBGNm7F6RbuzaeHHWX/xrSW0MVaedG2Z4Y7tNC0GImGqHpQN9G/tnavixsKH2v8t1ykPmSqgPinZHM9cFLcbcdABGxJlYsxmbSjsH1c1P1QKhyAo3P0NZwmMy57KVG+VLaK+M7jLtnj+AbpxqRTqNhuW5o31xpvV/GWVbkMlWKQydh6vlx3l2Y0/fg4dC/293//58Gxn3MH2MjhHVwt2Cs6JOSu0Ux2aBCj4EgeIZtNWTUEzlxc27rHgv4dGBcHLLmYpGTlOyAvp2uWgJ2g7l7NP68zmYhrNzHzn5O4U4TTbt6H8zMojnTsi+oUtTa06h8YkdzXhn5uJyKvyRqMojSKa+ECgbEFcDnOhMHjuiqLErrGDUmJtNkvJFguUUILPu3vDd7djyzFiL2xfJI7k9Y+CnQltFoqb6X2sMMuQTDlSiqHo0FvgQqLgHuDcXuAe4EO11YoKxh3HZcU2TIjw9GgDjrhK8vbD7+9iPXueKYdtZCMLqhTQcINTwIqwHA6ox1RgTOhKHU7gtGWznhDjd/FIsA3E4BPKot294fOEmcsA+U1+wrQ4m87EZ9t1S5YsFgUDrUFwtZDrtFF96/jGYBs+fq97B+97kiO5CwqyPFzdJHQZO901UBGIUaFPJdl/ar4nPioeVOwastcQyhzE+L3pEyw/XCtkGbKw5bx2z+TOe6b7MjWMzdWyX0KtCEnl2VC6A6+CA2++OnUqYzFE8UQ9AeyTFd3126v0ANSfNXpHAp2W2j6gVE5U4eJHtG8OByqHMyDFcAz8QlfRzcKX2mgTga+lhYfEjJWDDf5FyQKVLdwB53vImYNvcf8YN24QivVeySRuHzFVKJPESMYYbUMahC9dYV3iM5MjLf1r+KEa0wNtd8FN+lKPkoDq65bb4X57BkzlsQbmnhk6W90wRXd78b/SqNBnYEKx4B7g4iNgKmD3H6LENMuetO+CgR6fYMGjqro3UTuqRuusZCIuSFmI0re0mKUtjXP9go1uI00hhZ6KmRb4pUp+65U9YzBc2wqEns9PG1rvUC8WztPLhjg+rx+VlGrzHZaOyTWfetF/tW5tpELMdrOtzdyzJr/oWsJYDs3/9DMTKEFN3PRxUb9QZrpnHw5j4wtASae3EAUGk+EZHNIkZD4i7xaXgTxGsuyy40HrRYtjTzf18sL1pNZ/3RguDbmofg7A80rOM8dw73ngNK4jbBzMXLe8ogRC24i4ed5Fo74voNAJb4Tjz7he+ezra+JoGEpy2Ll39nHSwmJIo3yK8IaZBUQ2Jlsft+TgaOX74FgoRWgip4mLDVHtPkNTZBMe7vTpfrNZqS4Th0fzTajiVoSG6dkbQJeD7fRYP3nDMmh1SEhGLQKRUDH4AErXVYvD5t5rAofY4Z+IGmVrRMwviWyhGD2pYPDpQCp13jnVYbvs/RhzqH7nPevI7irsSbLdOWsH6/8WkbhclNKi3+56B76pmd+xQ8KN5L27B7ao0GHgQsDgHuDgH6Qsk97HdhpDVqhHBimsbiQaFmXPtd7gdLGoMZ1GpqVhZAq9DIsUUELv989pEGw+UWsQx0JyCaeWkm9fmSW1ZoUeA2FsrADr2iOVbvMo1pDnjENgGe7R8g6hFixBLfL8vQ+Tia1rGVnCc9iliLvNAxpdPnGWP1Kd1yvA07kA+SWSI8C7jzeeoMfPrchrIpXsppdy4dmEwd0LEESkKZ47aXetu8zwdXY2oWY1ogSJ8xiVcIxQKywt7j1TQ+WO3LrG3FowbAIoz4FF/6540pWh2Bzz6tmGzE95+GQ2ZEwZSshPt8qvN23MpwllpY/IvGpkREiLOrONJUhpWqQhcq8IYJWwU/L54YlqhBXa6ZqbD6/tPqnOeSfS7rp0okTUBigdEt246HKzRKbwH1tZy/Vo0pkNSHUHq9g3woFTovFJFf1KYE1RKovCtmKWBOtqJhAiQaj5EhXkWE3psTrVpwC0IfV4A7tn749ndFmUn/7KwytmC8jqObyYwpIFNmDGsZMXqNBg4ELP4B7g3x+gpmoFKSDzAGTl2lyzOVS1m9Mb4nPMoLERQFSokj0IXTY7jS7whfA8Qzti97FWV88wYqVMenQce0gr1kZ1oxxECZBLlVIfR/k+qBYobClagCr7sEIUvqZoFwqfHifzNCLrw51+iXUfUjNpO/rleSNjoN4YeXSeYU65Iw2JIIJ0x0cCSdjv/ao8aV2HckTKPjZqc9GVRmmP91chDVtOo0Pd+v38ymed/O3z5a6lpOpBj7rl8XThviDF30Q0CH1wO9ZCfjBY0XqysHxZUbK2ahPHGAXpQ6NFPs9n4WUc9n+v+Z3yIf5uW0m8xQ4qOYrlsEx7XKpngMaKxgrlJ642jrU+S1/3005eCeeM8GjdcqbFC697k5k2nPEhVj1fj+dQ6gY1kEmfNsZOU5enAnP8/4c2Ry8Xjl09Y1aw5oTsA47sC4VdcotE1ODzsv01+zr+QRxzotOZXyXCnwd99dcaknjK4X2Ro9Dv1N5C1Eq5CQnIc3em5G8wB3VnN+r2qNBjYELe4B7g4l9orvyw6ghQw2TOPo3xAvHMTW6jDDZ4Aei5w1ehlR7XFM9QuARVe24EDr7Ojon+N5TvYpyGMW5dbnbBcdiXOpMiGHH4FsvyMWCkBwYcow3v2SeOAuUBl/lwW/DVNf0ufvitL+tJRg1iq276BJdQLmTeWTiFqIGo6eHG7aUmJtr6m3O0u1W3M0PYpGjmZUKY95qoc1WAYo16Y0dVfocTGUIm0bE2G5qSu002fFslm4GOf7EITLBgFenv5L8rzRLP/YB5FV03q4fEq5xemsVmWUHM0NJQiS0JCACRsDE+txi0MZfjDd17f9/FLzcp1Z2Wd4MruEPOCZmEpWP0Be5suCWgkMzEg4WbaEj+X1qsonskT1fkDLIniJHrs1l7Fk8zDSqKdPCR8lPbojAG9uq++NWcTdi1REl8t37XGiHSTLrH9PM1FXAmFvMRXFUXQjqKSkMi32B4m958FitNbx04+guV49+bPKdQyN8BPyde3znuXHYuHU6WVfGcmdf/SEm/BJJLIY5O5KjQX+BC7eAe4OAdp+ObCT02eu5u6V6lh79v8dgw7WDspIjRNZ4svtrgNAq0V5cCX7kKlYmSnRgucmwAwpREYsVh5fflaihfylV0+tpCs8+xEb+KIM3y326JeLIgya4EKRnpSFrqmfe2jUy/Y8PalJwgbklCXmwpZi5DQmDOqKR2XlHbjw5dWx66OWdikWfmFuXUMfzwDBe7z8Hz7oJP8hCJRovUI/u4U90gZLmv9TmaxgucgveNkQZuvoLIYS/OS/fH2Jf98P0UZ5XJICB4aCVjZDGqlyRbAJenTOqINvBWYJqvk4zjd8jlMxr1NiNYVYKnE4RTedJHBMC8mI11/j6nYFQkdKQbYP2xOdZLmccbkwrPIcUWwmdPxnLZ7pTn9s0LQMYNYOcu8HfyI+eGsAFmN3j2E1otd5prCY6BtRu0nw6PMZTPzOVZY3V4APmr/ePjbixIRLmyLqotUYChCPKSiYDmnPrvSXScjzdH4cteo7EhrS+O6Vwdk2oPp0JzGzIE6NBf4EL84B7g3uAivJYJUBoX02y/tgfEnnCgtcOWAwwclN1URbHver0t3KXakEI4MAwBF9dt4knoDedXKhFCkLXuXKnpzOUKRLprIk1Z5k7nkIWvxDB0zZ4FJT2IF1L/AJY+Az43zVfXi6CpZAxp1lHKExxfpzx+4MG6yxVxushykdqiEvki+/T7cNieFJMP+E334WjehhQhidyw6bQ18QapdPUE6pTtF8A+INEDZzMcaz/Fenxp7RlFBawxekNd71c1fs+jS6vhib1jV9BTAIYgeNI9mpzXpICkmBF9rW1AExAtn6wGiVFs4LYaKmMp2mcoKcUGU0R06XAUNjfWUEPUABLn+SL58V3BqAvqzVBxiPrrr4C7vIW/iCxPup5LOTdqz4SIFXI7ZF/L6b5e45yhTgx3kUisU5JZ2WTNGr5at2uQeBBa1b4zFq8qJrDwJ0gnp5aWLnoUlwvmyQVHRhBAanHw9u4mP0WkErNu4KrAAnOsW4F/U1M55HQqNBwQ7Ojo0F0gQwvgHuDdXyBhKchFtT/OphW30eItyULGMXKS+srpv4bVoecestjQodYAaQdQHvRSYpeQagqrD5JxJuULo6aDokUj+tLvZZamDvn9wGFnM9OMauujQHFz7bSMwaW1tcF1H55wjA5K15Lc39Guo/Yuh8K42sCHmaqxjAsbkKBo4mf899xnwz7FLo6iWxU2dqfdXS+IFb1veHn8knelonxScaX0RtUaoNWkOFHUuTv7AMnFp7KS8KWAE7FBN2tvHlDHK1l1cJBztwaXzd83dHLnDhpYqoLcz60bc2M1eXdtthv4FYKwN/y+aumS3wLwGOEFWdNHyz7szxKgchH5jJ5aPEAzTvsb9pFWcusK6g7ss6a3ySigow7pfzXW4JmRdfzhpSadQoMRw8JMrrgDX3LdaLQVaX2lh8xpPe8nb7BtKXer2feqM/l5KGiVmYByuhJYAAZTSx2BsZi9MA5vqA8SKH6oJiRolrr6Jy7uep3WtsqYaTMo0GAgQxrgHuDfnuB9o9wGCK6zhYCnHhwHa2epOvjraIitDH1/CrD9CU4GwbJctSYinQEiODnIPExRG1D8Qp7uKPDd+nQoo8GOjoF4E9wqZmAZO+h4qUgLh0pTrhYf6+t+GczhwWJI2uD9IF8eonhDI6+ZlP80MvYTbANEN6QlGixqSxVDaVKNiKCO0qXe75FDx0G45mM3TFKGqPrLJbhtDFoPfE2sv9j6lVhMAELfQvhrheHn2KLgSk8GVTxjNB3hOh5RmqVvKKA893OncHSkwWTRAEzoLYOvozTDK3mbY1J8Vi6kwuWC4fak++Rgxe5PPuosLYOKH9nNusMcQNXa8YEhKaCQRNwj3P7hqn18zLeqUFewc3eaa62+ej+JmkXSEqGbIa7AZceq3fD4HoG3Md1356K2hdrXd/BzK4ZKpIBHoETiSiroQzhk+P5Hc0ZNpUf5d9QfwuDpVqJj8SMyMjQoEEThUNSyK2LN3DiLmSkN+csXtEwncojNNqHq3UQ4sNco0F/gQyngHuDeH6CDGxPy+pQ+uOzmc/x2vNFW/NCocH6nAQOf/+3Jr9SCq0WMOivy1EZo7K5Y2SIcSsf/BitrSYwNhbuwXtZk3vTtNazFU92+Cn2nR7WtJmFDS0yot7xxOFzFZEb2CujsoI/CVlb1XSECFU5Vffgw7u2cdem+DdnE0uBwWKI9dHSP29aUhAaL7nttrcR8X5QGdHc+ZWqOdzEwT8SGQdBdbYmhGGg7ja4Fz9Y5iNkWULctNiHfKciuyItacpp9X0ZEOcw2k/KAKql8a4MUIwnUWi0DsN8PO/P/9jzk0awgCodQDa3tehDhVCFbfhMK4gf7wmZ3lKGlFudYSJj627HlW8NXt7x8kN3jaCKsqdcIjKwGlKNrtbJ6AISs7wNQfEpw0/6NGI8uUhh9O4Wl7Z6J6iWh/4MIe54sjyPZTlTYe8Si1EQOD2pM4LK8aT3M1oGpawIqZKdlbKuwHq72pw5tccH8lLji5FHB5Vki2YmJ1qsZPoWZxG7zdSjQY6BDOOAe4OFf51icRCnj0dMxNCxvy7Koeso68f+mkhcKJw2+U0NNy2i5uLsF2J22Pb7xBsdzzFMW2JV5ec5JZn2dyrqGCYdchzLxp2JBM6lsP/DOz1pWCxkc7mUvWqf2kfesek7Sq6nv5O888CCPMxcINHJds9+XqXxnJX/vLymqHDk8w3gj/WxwE2EG9SdMApYb0mrMffvVfYWs3cYbBhr3KBck5CfDFeByQGd5QosCRaKpa/PYNFar37ec6bN3cTZL5h41ZWBP/m6+b5oX4x6a+GXTqTHSwxwXDmkNOcLdmKqC8wLKKu+K1I0+Csdcrd+1dcjNNWZzT4RXs7AWA25BSy63tsby868EMPVnIfKM94SkzRbjrFjvyI9UNPinNdQjSAHWqIFoT1Uxma6rChWleziwupm0wxKzycYFZhCniypshElTEU0gOV/k2KVEaIjvCsqF3kh2zrQfiXYi+SsfFlG04R+dwcBbKkW+yKhUL5ij7cuQluiMpgAWkNOX+7gU4Ncm2PMFIBXZL5tmqNBi4ENH4B7g4KGnJqhoENUyqH7HVXM3KWM+F6GQRV5p7oznn8uEoMaQshz4bapJtOlf0oyDcqpAqcnumWMxUOylPmqAakorFjAXoqTjHQFMHfn66Hfbz3Ouj9RT5VRz/y9rTfpWJXgMSoT3P4jYeOUr1AA8GceZpfPjUbYJhT6gtCTtPpJiIdoBqUEnJ1dIttnDTSZf7JNHDZ2KWmfy2TL870Xk/CFJesvsgkOuFMoPQaqa3klXXGIqbt0vKuAPhjCrrtFei/EUxHF0oV+uJF0fjBQmUV9VJHaQkAp70g5V2byKGpb4jB3w859pDiy+++ssDiPB15sVEwHLjzpUIXeC/Dp6LRMlO8Mtx/JzdPf7zUbnc33SFXlK7UpPhewys1HjhlPTjmXyrwjwPwKTxQMSZ7sHLyHg9vc0Woq7zyP0afgNkfqtLS1FOuAFwBsJ1bupcxcxRBuxzKg4owxOux6qfLwIz4D6cxHMjdpd/PPnPNfmlbp0UJboKelspJkIyAQ+VYsnoytpFcGwRyTo0GKgQ1bgHuDf4KepW0ms043g/Pb7DRxai/hr7+0frTmQpMhvqlMJi9DOgznne/Hlbpvy5xi0ybWk5MSjLoCPci4eQU8hpSyjt6Z2u4La8id7YY6rCKg8WO8gE77wCb7/oo8lMYBtdJcdW/6IlqTi344/UpEdx0NP4VLTpucvtIVtxWiPEho8Kakn/OWcjESN3Z2KAI+5GuODLnNFeh6R+yygbJABvq5nhBQSr7fLsOWfCP9Gl0BBE/8JpLCfYXnvRIxrmolZs78OBT9AwAguOOlfU8szAwhmtXXFE8w2ig9toLJI0+KZMf4L5p9IvWc59/YD00MrtJxAQQXLWhB6+koboJTZstPND3G2aAu5Ja/A4RYE2gt349316u7SF8aqjA32uwBwyo3l/VkfFbDTR2jQq/t0hYMhknYNCTLZ+chIBTogn35iB1VqCQydq25SPUv8p34UiQszkg3seBq2tmDfECvZmQOtZzaeCEYPX8GB1LtNezbGI+GQIuO2fC4F7yk9ac1GOll6Qpd3qNBeoENl4B7g4B6onaFLHLiE9Ur/TV8azc1oIcEBK+rS/2bJbORfkNJ1eZFZH1bFYr0+SxCXm07reiDu9wQCfDOT+PuHkqOu+E0KAcTL+rSoylx1k4o6En3dz2GT/2V8GqOwIMt0vcUbz/PeagkSH2Y4CumE4UBaeDOG9lgpvHPx7/k5LMvWDcTrpmikpjWPdgEAHYujMYXE5ClX60b7WC6SUeqxv/hSKe+eZQ9jDWnBf13fBEVp4bpelMH3+7NlEA0NKDStrkbtDsQIPYu1CmyzV26FBenGz1FvUuyAL3ZI4G5X7Ep5ECvu1PtpaAeylwDIVntIgB105d3azn3CJGrx0HNVKJr5Yd0PXeSAu9Sf9nqsbFjwI6h0JmRjpFf6aNZR3kbEfPKTlC3CAiVrqUK3tsZlcx2/byjUXtmDyrRbfyP3PeBy+us/TSwfhNj2wHFu8PFDpcZs5Tpzt1D5vsVQfDvKGEjBeq/2x2526NRjkA3yV16kN79mByEHqNBcoEN04B7g3l5oUEVq+fU3NXdxPGzqHmLiyYfb51zY2hFBuAHyh0U1MzVGq5nE/SV0AjEiX2eJMMFRU+KHdGAKyhu+L1YFtSeOFkkB6qZv2xQkEuT2rVeLYjuaP1DsSgea0vBLE+FzpUqHKy9LWbmu7AUZrpwn0TWMI+W6lEHemRVJaDgUHNNxMx+48Ttxn/Yd0Z3GEOdNQkfzhspqbwVynHiPbjonzDEoiSvEg9nKauI9An8MPozyZ5cJGveJ27Cr8idW1p1zQn+AuA9wNOt585yHErl091dD6FfZKGGl43w7bb1+AQqTVuj8JM0yvKOy0avr/QNzGQtfOOf7Jq392M3KP9RCho5MDh/Rfp8T8eZBi9QOfvrH53dqIbZRGCyuxzXXUF0v9yMZvZUO6EJe0QAylXQVCAEjFnOBeFjjo59WPzxaYbjCaqgXXkJlCIvOCGIiIGMNYO90ynOFlX2syBoS99JTOnPRavZ94qUwrHVsmOjQYaBDg+Ae4N/faAF5qiWrTR5O6iDuyIVqFk944x/+jYAE/Xy0V7WYjD1qZ/i1/6dK1lxQQvyfjoRg88qPdqge80H5nZ1qZXGOLHqPyLOgFJkkKPKJgUZDsoX5v8drh0+5fFmV12x9KatKa/0E6tO7F3Dd5tjXALOhIiaQ48NrmYGz5/ioYJUFM2f+5LAwafPCcBcdfx1d0Qbpc43tXJxLifDwg8dfydXBlWlplJbI31psTyBZY04Ux9VcwZY60I74K/4e94NLq2F9Zp/TNNdw92KxUkq85X/xuqE0O1h+Y9lssT3qTiqax3WcMaf/0NntqJSQTqbVjJ+TQA3kyIiuzJp9nfb45/7yL4jZaQsu+7D/WuRWt10pcTlXeAFmhykDrse0rlZWfu0izFgNkwnb6D2qqeEEyyHvEvsN6a1YA/05QnYqUHwJ6FqUh6EunLdcBa8C1TdjJiXl1q5CxT5GpypKl8Abo3sxHd5Sp3lBeiCURtauiZNJ6yLub3ABXHUWmFAn2toTV2jQYmBDkuAe4OBgp/siLhPmQXh6kpfcFcBeQ7IddbEtFqwuhuGcviyulalWWmzsTC9VEk9lB5UnH3VfcKF1cE6HdvC0XfKrv7HYjOp1m6PSxbpqoXgAUvUVCbVN8eUX4/aATTp66yG60FT22Zi99nVDd1BJ6yYDA+1gh4fTuZweaqOFYlBdK2S08wpkKBvnnWb4v2tQa90yDvVQ2sppqeR4HzT7KhJtK1Q1DHTiRgOLaqXRrjEAmt1/+yKphSlAB0D5gPaJndQmR+vAsrvmzOn5x/3qpp7NT0np/PQ9NoQYrFnEMucmMEjExKUSWup8kIQLbH8snjfab2e7UiQFIumf8XNQo6vI/Ndub2K4ZCeQ+2/Xv4/B9JSrKEm1oDU3t2VSiAA/FpBJhH1OWcjB9ljLhz8vW2P2HEirquMWvT/JAwaZZEakQcRVpbaLxknLkicDm7mblgfjzc38uJ0Jmt+ImXJt6GB1WEVrAFKrkgH6Tj4Uy7UnUCoGgROnCPPechL4yogbmitaBVYFZyjQXKBDoeAe4OBc5wPnCqVbAiiKaAP+Mkr2dLKeCia+3KFoUE8RkCLeSHdN2lxpXee4GAjwhdPI7sgnmjs7XUygXGK8livSO/+EPp74Nmrp4JhBF0G4od4nfV20/DDuXriYd9Weu2CN0DZ7U78sdj0iZGjrydJQg6Op5+C28GyTVwCJVi9sWrHv6AZmYmFKfuLCphEeEpmubpPM4//kIN42nfG1nj4nGiuWopaRQKo1YVH7+QIDpsSiJV4MM6sz71xzObP/bEvYdHtpIEROy8hMSn6+wbllUoGze2lwm9X/IwLQyEHr/5BN/fkXltW6gJiIgBL813P5t+rKjLe1pSBCCKG8+MZF/MrkJ5/YM6eYKPQLtxq7hT0bkqGsK8sZHA49PrgjfAh+/dv0fHF8xut5y4wLh/HsvmKORMHZfFgw8gOzYcCvp0M4RKBZouS1rrgCoFN0l0bEYG/BcAwcMUy5UY0TxbS8+vFQKfmYGrcPZCtflOao0GCgQ7DgHuDb4YvQmn/93jE/fHFqBOfrOaSTuWrIB3/kctvG4GQryktCIsj2wDhPYgwwNRJJSEQxpqKgCqNUPW6/tAQ/0j/lE7HCLJq0dzOKq+KDUM/f7edZSi9tm1vLe/4B97WZIMapRInR9LIq+INTI78OELHItWBE7BztpST1AWqQ8U5hlAnSv30Zdxygc2zTDSwwwBTp+meCj4P2qKn7AhV1z8QNEK+LnWoNha+ZMol3dfz8Qhtv6GpDHbrKBUol+PpaCBtW7/V0h8mMQvcDH1P0U3Q69KIJs6u/oIUl3Zs/qZNM0/2lKUEboJ+Z9zAEsMuPtEPm56WAJQthYySRi1ZAzRXX1gwpCl6JdKG2Xr+O5S8sA+aZfqQlOikci2xlNkAJaii6k3a5zT6uVX5lYmpJzOkIhRor0yeSwf68H0B0RqPgwxFeGxU25lLM/NzkU1+aAe7dSpwc9pqPVAEaDq0ThYDz4kEFZUSZC/0OGPYfY8tfgpGtvCYmLbwRA/VHG+jQZWBDv+AewONCmfZorMe6y3nD8ZHwTUakpaZ+C/HbJ8fVzUXVm239DqbU1kH4S59h2Oy54LnNdNO2v3AxGJ8moSQUfdGdPZl7uZBv47xVlRxPadZrt7GEreTBuy3LujQ0XlTN6RniIQ00LXhcwMlf8ejsBSgvd2RXX8rgt18JSpwRTVJc0QZw1s13B2BjTM5ZWMN8RpsSvOxa9bE6/cmPpQoicy5O/ts7lEkpU6kt+Gv7hknIhRVSnHKaD28qu6spDB3x2juKdV3ISZKADGY6/37XnlXcwvAFKz/j9H3Tqab1PlU7pAyCIqQo3PG6ptqVQ0nM0XMMUrdqpnMctvFkh44wjAt3a3KF4lTtu8KNEFUtY2pq5bwNUl+s88uBmaNlROBAY7GnkaP+hiuyHL6qh+4w4Ppal8I9ejbZUeT4ZTEOm2r5srTyqBAHAZwk6YyYKzWeQ2IN3kfLLhJvhk4ERiTMkHcHI/zGka0HBOabDyR9VOHqbofkvBmAawezHlEv5VkCrwoorfOZaW1RzAgrFwfweb61PSjQY2BDzuAe4OEgo4nn1dRcL5vud8JDtJqjxSOHAGExEWTVAadmxmyd7v0ugfZMbC84ZR7WVdT0CyT1kHGqFR2qEkOA726PT/0zYoTDkp3PseHL1s7sninI86H0nvlAjlEsYk7xsVNLGzAQO3jqIkc0pC/c9FSWG2RBSWsv8vhq0pA36qweozNDC0cP9PUvo6kZYwI3w8KzQZ4re6pmMbG/Ar7ZB3F6zKp1QKpPYS28+s07AcQPTWpHp0HlNpexburuZaOLcYmU5iZEffS6K0oOxOXj8qfLtWv1CDbiWp42UqPlGQpRC+B3pRzWWz0wSu/s6CSq2lYXOziL/Pw/jk7ZP0gTRAeUfTTFQXUY7olNXiO1XTydu1logcQJxaqYLrJ8dDnjdx6dyLEQYNXEOOQZLGqvlJhqKIMLR5l/quDiVOCU+XEQDgHM3F4FJdx/TXaX6AiYR6NqLAMkY6CjswtOMcMXyVilYTMZMWinxffqAXycD+CMgz45uUbkBP+Ygb3mOMAZDVkdeCXHO/FrM0xo0FvgQ93gHuDdHuPOkDjSJW9PwnAAMW/95gOUb6oTOkxxpcJ7VZOiWPlW51kb+klVhDZM63OBuH3ko1CRanDNePNzhLK7NalF1TAxIucz8gyR6qB8AoSpRnwgNQk9oshAnMHzfwF9y0WWULilicXpPOa5gbplZkw1yE6LE10fo6eSnwkxi787gotEAAfStttO7Q3F1z4mZhKg3iI/j6Lt+0b2O/n8b4Uj2PBekDQtmeVdDZKLL5XPQYpxueG39/T/pCUGHYCU3KBw4aIbKDQeDj5FSqSRxUZpABN0RpFLDPm6EsxDYBkfBXgZ1b6lyilvFgUI9ttaZh0tY32BRCwrtAo5BOrK70vlD9UQZe8sOQdesY/K9XIyYPx9GU9AizMyl3CxvxAYeQdfwpuFjcuGZ3K5Pc25FdJvF1PPwNibAvZZZYpe7dRDkdbfWF1jPD25skCAkhW0jNpQ9dstubOhEsKeTowOOGPW00+ziMYhMEcfqNBd4EPs4B7g3p4jWpu0FjrHKsXXh/E9lekAvuRUDT+W+VhtMNv1DdmimnhWsxCzBCDBK5LfT+9/p//kKXW/6di+sOc31hyF70kIE5KS6fPxgifuBb+GmzZCkivLQqQ/mDLI8hWOLEHBaDRkDSEVj14srgqndoRL2RHRk3Ld8gVLtgJLFSMUS91oGdArMqcZv0eYEpeR3oeaHT48RBlZaVSDB3iJpy2MI/N9HCWhn5Tlkr3QCII1oyTJkn5LsSwTc9/V0MWA+9N0SM+ws70ucDgCfpyIO/8U94XzEcrwja51jY5i0Ydc8+W6gDP+ZXAivh4zKYd3CL4xu9vPCaKrbwnT5EiA0IiN9OxXuSEbqnuSwkTsO1lDpnn/VK0RhA7r1smHnBnsDeYjQ3611B0AUArY6qduO/e0VpAwBfOsoPbnROOjedSzIZNzZHPrxy3uF/AM1OVmAVmImKKXZAKxuhjykcqbQywjpsunJEdHWm28xfCs3ljvf8bW6NBUIEP74B7g3NrMKNFSAqS98eE+flnN9p2ffJhrh+CF9o4e6IBqtlfNH0KeJ2l2UAj89M+2ZCwhM/J/jIDEcKbZuEYlCJ8gHPM87MDApkQTVER1GRhucxQ4UZ8UcpKBZ03kP9tb1UtG2byo9BDUPtm4G61CZ1yCcuRHUi7HC8tdb0KimyNZqN+hW28gBBedXzCvGQ4I5HZ1yZw82CyOHym75mGM2jBABSbZZB+pSDB9G7ppGUVSi478gwyP0bSpjTKdEOjuvTKy4jlEDktYL6XUguNJWT6nQ+lZn48mvd/a7INODNDXZsRLTnL3s/WgMxQOMImVb+N1l0VIQD0nj4qlhVi/e1XE3bA29al3Mh3EQAfZsnwwpF1SckCss5DWRUi3QwQGkDH7ZVV6YfO5hIbfVyrMP4FqvfTdGjR1Z3QJak1Im1IbGqAfpXnB0klCGXijKNBTIEQK4B7g2dwKuky6RfOBPotGM/PnudD2c20hXakZQ7Wvo5JK50kAQFGCcEtvGMGeSBZYxwN5aAxJJ8EblqHDh31N09Hm5H1f/4otPHo77k2mIHOtO863RNvyKZDKewzf/1no5mIsx0gg6Uhb7yGyymKAZZsJ8PXKgU36wSACg1lQ42kE9FA6iVU/uK/TvKXIyWYkVwYPn1qhA12YxCCDXBWBjshy/WcXjrcV0qgikSTGnji3S0EGgtcfZpwP+SGnwfwKPMgB2RKt6wNRzQuWjkN8YJkP3smP5yoZw7oVooo+sjg8zTzi2elsXn46uklN8vuhNsRqusHPjJeeXKBf2GDWUgGheAJAHX/eIx+i3C6xi/PsJDdol2Y2tBAdsOVqNIF4SFjYCPE4RqeHi2kCmEeLMWpThpoTefkr9ayfqekH+hA0MrYGKFj+PJBo0FTgRBngHuDbXEibSd3U6nCONTdOughjP6gyuMovFMMgrW1km8WRfD8I8ikedEpVWyB5a/xBIhYQq/aBXp+erp6M5SgoXWXG2IYT1tPVHpXEaZaexqrzk5DULWiOpvyztOg0v+8IQxawoVVV3yQpjvdnBU8IG6SJB7L9XhfRjzo4gGWo3TQrME+7pf/6qiwlaM+vIn0BEJlyyUK1+dd18CnIDMRfgOn7KzxxoUephJlnXbSW/JfJdXwmKJWcNedyLqVjMuLmMIuWZhYHFe6k6nYwtgxgR58r6dNhaaRAtkGTXQlyZH2HYIg+LOoYGyyaf4sCYnd2rk0T8TXDTRWzrOQR0QHyB5NBzBjsZNMqiNjoCQDF8m5OPOoxrSYkHsuw0fRbisXBBkldasVxpLHHY4QMEUjIW0Bav9dfdP74f+BTcGT9AyG72URN4fyJS6Va+iNzDUmo0FVgRCjgHuDaXIbqTE4DJ9Y2rWQXjc8x5ryq1AboYH+v7lsdtbRO+o0RIM+R9A+eeRJacV98OwSzFyXRjfpd604U05F9dTN5ZTLC9oOhxUvxBDDbN4ruBGaPTnF+FtFzHRlttcOrUqjYpD1bC8bOsmBNPgYxdHex5YpSx1Mf5ARWlNlFRCGb858a4xi1sxDVuSXVRD75cs9ur6cL2yQszX5i0EfJ83Uz+cTEbAlEfpHXxnc4un7oWajQ3SJbILoFcK1r57LxRDtgJnp1K9fb9xrb6SwndLSJKEDQNSqZ6ml3FPW3QIbftq/k4bH9/rW9q/Jk3OixJZSKouGrnHY8lRp623hixbYUQBBY0mNdN5MY6dbXkNsGA+oY/tSIFLjYhBoGzegTpK8K1Mqj5iWW84UTGjPHN5+av84Uoc+8U49xrTk8mOxHXyi2SGDKsJetyUdz1S43LijQWSBEN+Ae4NwdhuKFm2M3zJqlNE/Rm9mFTB+XqlgebLB5YIO/u7eyY7mEmAgYf/gonHQnBBIS/DZIOqQ1tyDP0sv5yJLXo6t6UoYggjPof2C11+V8YAsZdlhTtOKsuWno+bjfdiFPmyDes/DpRL3Q1SwWk0vcrLzzGwCZwLSYzn7A99iOawV+D91C2p9EH2EqkCpMfCR8fM6AWnLzQsuXf1u0NVpX6Y84Fi2zdCHrokySFjBDJkYkglHmhOkjB0DxUAracF61wj8UqFxFXY2PWdkbWZy9rm1PnOLt8paVz1gIaZPakk8PdHKV3St3CVBG5i+4bUtbNDOZLgqhfMvH2U+YKyMby3S9nt8cxlJB0uqMGH+gScdBc8yXCJB283fqyFfbtYti5TelPxS1Ud7cVCJ7St5axwaWyOiTOEy2OSsDwEeR5SAGLQKl5UrGgW/Kzk4Wb1/i7R9IrLAwpHBLac4ewOH3aNBV4ERG4B7g3FyGrIQO6E1rp8LBypCC1MPPeF9np5zGDzZBc5hMptMqPRO3HyNZ6ZbGS6kDNr158EpOBZXt81vA38uSjJYsxDJGniiZKDB9bWjUGOFZ82CWczs+yTAOclD/Qb9LbUkJ70oGH+66FA/PkZ8ei0oo8x7g/EV2Sw7OXv6GoQegSIMncB6SMtKnVg2m8DzUp0jzDC6kekcQioLnN6g2BzM53Pg/HiR1kue2SNOz+ZWxxH+hqLYHMvyqg8BBKGEh5rMpap85lPJ2I9dUDzPfbHTZW/z4RitTKAX2fZwsJZz6TjV/qCApF0YjNKsbyXuPoT5DMInW98Ev37+69hoeXMOtCbL1OYh1fIlXo5lVawsF18j9KTZRFO1iOwwrTkankylnKB/XXN9E2oyaZsfTlgrFbqeJ60svOVN0CsU3LSkxLa3+XtCb8FA04wH5A0DDaAJE+6jQVKBEVeAe4NpcReZoAiOlHxlsxF6iwDmBs4G/mgbliwKWRV26bS1Spr5CgzFrwRGRVsoit4vzw8ySSzi6WlLYldGFvPvUgFBDx43PYXRPYSfF4Tj45MdMbIfv7as2BVsOIq1M1c5lEXvS0BFDOte6h77pxRiQpWzKpZ0nKqbbegqI22XPz5jt22TtQ45Yar7sY1dTDJFmd4BvKHZHo7v92D1YPZbCDaLQ0epTj0WOVU2VyvHBY8W0aH9QuIVvMbNl1rROGj30e6Kfy3WoRnlypFw4FxJlFEzvKOo6qxjv3HUxSMtEriJ8WIz4dKNKVCBpndbnVLEOl1QYGswsueBUQ+GKbA9wxzvBg7181Wa+VuxDiG/Me2omU7fjeTsdimLboQDBpBT1/rFe0l14ATAW7yFKTpx6rr+nZ9WqlI3JXdluS2GJitCkmMCe0o7CPo0k09L2KNBTYERk4B7g3BuFTRp4hCZ4Rhz4rHYRNCJf8+kDDFAbVDI7huHinqSICdzM6jLWxfLvxnwMgnF417ot6yN3rPs+0KhMOmlaB06gpCYuug35ZYV8rcLGDS/EJ22Z6BKJVIu3eIic8CZuGMRYsO/B4OYYV3nBUOoR4LsJBU/25zEBjanM18iKhm2psXJmasDVaWeIhICkjQjlsHeZW2Pv4m79U+A2qiH0R8Qc2alQeIclQZkNqLJLLx7ISGctMRC8yu14HM1hqZRt0mkVcS0aQUXN/8Q2lpWp7Ie65yTJ9utv1mEV7bpDbPuFWA6ptLxI4oKHvvO/qhHd5ZCb2kKXwGSBMTtmVcCbr46P/3ck0IDoHIdEWyaKyD3VHWPSu50SghemDlT4t3reLQFlS1yE8DLd3toIzKMRSsSh8a1RHzzd3cwSLmBnC2OAnr8vwigFaNBR4ERz4B7g29mEg9pN2iDWPVl6lL6+CPvziRs+hjyc6lPeGEqeeb+e93J+8lT12ZH3IzYZN0/66VJtU8a9k3+D02aFuxXTiUFD2QgoF1JnvaDSQWAlRmy5SAj4937AXnPXrn5B4jennmBzr5EEqfyJ6oqoO9OSgLuEhR47gpHYxT+2VQNV2zS069xoBfwGPD0l5xTCsZFgUFrqmnfGxtO0x+6GT2OGJuC152glA2nVclQBDpiDDDY3u/bXvydq3mZM0kYJ1NVdEOfbHJDGRLzY3g/Kx64MASX5q3rg2xfEjs2zekLgqcg1r1qAR2h3q7Hhx+un49ka/Jjhm7lRnZ22pIpuLstJSlapCOkxJOSbDRFzaJZNfHa6XW9qKpcTSziEbxqB9t0Zk2QoYOJYTUO7l1LCfqmqpL1y1Z/Myki04lEkojTZ3ta5aNBRIESC4B7g2xrElXvvKhYfmKQXmy5LY6k/TJ0PJUSOcAYQFwpcqi2+9K2dwvTmEdaacavjEexUutH/6FriiB6wP6N7lsT0AKeMzYfRnbVxI4OYH350PtsG+K/tT8desotPLRDkI4hcqtzJk61/IwjVR5hzPheEhmov9LhxhRnkNgsrUhX+EOm1MOrFmKSkSkHwJvb77Nwr3YLRLfclp0N6/+5fBHzg8SYNuI8ueGxE3wNGafmSWqN2t1PthsZNQcrEAdnmuCSMUin58g5sulNHFZlygmB/Nx4fuzTtzswY6cSGZpZnx4fxFhJrfy0x17azGi46E4gmKgt/lg7XHNVh7jxaNaX4s5/uBf8NcQSjesEghhKLWEdkdYF0dvZqGI7lj+Rz1yDGLUQk7jwQHUfna6SZ9JEy7LQXBcqfNurJca3zgyUJ6NBQoESR4B7g2hsEhmcWme1miW+YOJgLw6fIaBsx6GJcrZHKHdhbBGh6wQbVjPDC6ADWS52p2RBTdCmbQjcyRHTVmH0cSomNyKgmZ5R5cDos/+AQPhL05T7FCEeyciZYI9lmwxGznqAeLn+GxXZQWZ8C18SGZ/WetV+GsbC7bRGAwLhFM/I2JOoIhWm+S7RZVhXSGTCQj2PklStCKyyecFjzxI5fDTN2/ayWXlb+xkMGgXvbhpB1GFLeMjLdjrh8DlBNVIZ0zqSpv51HyPRNb5JMJ20yDrhbZhj25utxCUR6Bk4VlhFlsT+j+HkIfPrQ38vO+TfkNA3C21z+tMPoLSWAT/X96DCm4vbluBjcd4C/TtgmhyP2H8asPsrx8VmVUnGTefU5C2iAZALh4k+EHQ4tgdHHRdunzkOAeQYrfHt7DDSC2ijQVGBEoOAe4Nuag712vT7I8B1rsxCiqq0CiXEtbGdsCYImwKbbDcpEr+p4AckFHB+fNgZyz4sEP/Qdm2ofpIU+s/ciaqYpjtxwDmy2a9CiIG0Y5FJUv8qCXa+Vr9x5OqcFqtaDd/zPxcRCx+QIPRMs6dvfnVNTrAjDvW/0YxFtDmndUJXVF7ygD9MsVIHm1qH1FexYdT8SsAb+3IAJxqfIfh+gkMDe+biqxCk9uKam2QymsNXaO0NnwYIqsULeX8E1WUWBV/sh7A5Dx/a8ulWwXLRsxTyIIyaLxiVqdY/nrdzdg7cSgvpUOH9GiTAnJp/ok/hsLIDmExTTOj0E4pb9sUyAPvb/MpAPESubpNF/6+xtI6tQamH/IqYD54JeHYGN5rEOgJ/3t1DafzWkGkbGg9sBFw5Z1NhEwmn7by5Hk9ielesXS5Ao+nxmU84RMOpsQuVo0FegRK/gHuDbXUO9ySICwGaZcYrF/Ge47kg+CB+0OEaGQX4oGsYdEk5TUFSMtKaz7XkrxGQbmX9QhAmkh/C3RG1Szs7BDTNHOV3jHnvkHKiakWRfdo4P9zdpZvvv99QFHXxpqkfNKTCtO/Uy0kNCVk3F+Gx02PeEhoiG0Jv5udVau8Rm2YxoImkFHbJ0BcWQQdjvm5Cw4kpA9vwYFwZdEtkThX3pJt2YtcWWtCT1G7nUMvKcZ5OzKh6WYYGt0uf86qA/T5TOMzuu+Tbhq036b4RVi71wJ4ydYAk7VmWyEnPn36lhau37KpnTrRnEm6gP4mLwTAgiKk4rGyffsRIzviKZu+tFF33YnE/IcMkJ8Dpy1H/MHUvw5E93MayZeppd6dbjfmMcQ6D1D/MSVzZ+PoOnwGTp9AWpJSXRMvevb/oe86f3IBt02Z2WCd0piLTfVcnLoxQrhwZRtAmuB5di5+jQXaBEvuAe4NxfBWUI1CqIrjhcE8DngBtuBX9ZA2LtMkWvVpQvQVyiUO9d2pttitodH45CAMiSgYkIpw71D6B2flqN4PsElstu4uDTRUAFIFZE1j7VBqLx9li4jZ5/6f66KJbGhtHii/ZzCDV/O48+CmtNYcKNSDzhiOcGQJP2m36BfLSXROzO7HjAezY3jW3+8t6+jemED17KMK+j6YrGKtXDVKKs81pmsfbLvsGna2r/mOoOrDeggLs5FUpet+PxQSF72T2saEQvx4BzmvIWUckJPI3GL8Ja6nWnkZSc0WZVH1ndciazb/kKrZKqnsPhzFgltulMB8P5QRreEFbJz3yhKT47HquaKPUGfQezKT8guze43KfXr3XNgZaTYJGF+89jFfyt8zsp46lpD+uR8P1aTFDF9vJF6FXbLru64n4rB9FLfGDJ6VUOuoUTZf10XvMrRSQpKl99a04uLGzBCILumk/AY0RzUjy15PZAi3acEBEYU0FQKNBlIETN4B7g3uHhy/YKpToiTxJ3wusgmn+aD4L7he+A0U9pP4ZRrx2eEX8K1BePWpwBS52SlpnabgvNyliYygcVUOLdWgD5ln46WAPXPMFrkwcI5gcSJ1HMB4cWDP5e72kg19np3QBrLmmvVZiosx2YHwKIzCmxeQbx1mN0cKzcg43B3vxnKsagFr1Usn7kLSzRB+QYlG+K17El7A4OOPJCOsBYJ/bA/acQSKmdjJbOGPmSMw9dXN8NQcH9YZBzjLnijQwNQBqUkPueVHpKLjn3ovrl6qp1EMP+vkntc4gaB1TngCPl8XfA9QHj44EYgX1a2h4dtyD8+4oFZYy1iVVWAg6OC1WL5iKfeAKoVtlxS7RUtOEBtWZzwz76oIA8Fhx19Ay8atY+sdRcgMnZeCfSHDlkc0k+PptBsSzQfh0vmLrowWhaIZSRLTW9OqZ+weRwrNA8xedqeWlaHnWYmrHSMw5lvOxIeHNUWyE6aH8LEMvAxpAJy/fq36QytHgcs2AEEfRBeAMhLnNfawMfSRSTUAG5KzPo0GVgRNzgHuDjIOjCu9Co/TldNj5F76OcJC6HAf+WZ+tjEVEU2FTwr+89fq23yBOyofvNkCz5MBZBPjbbsxgf+YbiyBD9PX161vTs2ZuUElTwUd/8VDu98dr233BCVbrCvCwp1yR0UDnh38Q6twvUS9UP1Tqgz7XX9nCbYU4yhxyT3Rs8ldT0vXrp/V0hBlg7fMgon2af6T7nwhUBWpM76NzAzKuy7R6frHNUKRyI6+elmtxmCg8xPWYl2ZPn4YqzSjhbVPG8U61VYeZpNC3IIKzAMmVm/I7Bv7oHsVEfGx0FngguDJXCraH6Kxq6Ut67cF6nB+ULuI0FkvkWK4NDIHovwi3oyF5s47sNpW9PHLPpKF+ClHVu8CTo9U8QIIJo/zfApsxiRH7/tP+mabxQ01RX31ZjmbZYXHCidrMvNkrhUcTvBAu9OhzKrgkW+RHxqTVwMsOhi/gbiYankvVfcaEno2jyuOMVLS8eGXcgUm8wpSrJbzDxOBeO0TmzTKm1GA5KOVqptPhGSKTl4k8BIO6F/zMBRpLo0GlgROvgHuDh4mkwgEHe4mfsnudxoULD9oOOaL+dZ2ukJpju3RiTJbjiBoANKrQhoW0EXq7O+OxSH/nWABluF0kd9lS222rjbCWALIolt4PYQrxtRK7Aq9EYFLgwVu1R3AiP1/kWT/oxiAPzEfFPaYT56xWq37ROmm0bS5HMS4aXbNfewFhKWzpDSbqUcAYlFejYYLxo0Znat7boqSjbnxUXoFR8Jo054KCYlg0jVRemTST7Oxtpv/JMYPZVUVGhq6/iN636h9znARLY+9AU9C3P/leJU4WDqpae7iub1/YRJoRy5+6CMvwsD6cqEFr+B9N13uq85qwBg41qHhi32EoeBxNX618aI4tXdDT4coKKBG/MVFgstfdyKER6nE9RB9zFRlBa2QF+ktNGwpq8C8+oZdW0xZCWzJKdNIQCXYClboeS8dEq8uQjRC19iH7KI2DrI2sD1H+vjwmBFVopz8DYDSXJiqnxTkgAjUiHpc0v5FhBKLMiD9ycsKaD6/howrR7/U0Dh7CGwMZ9T3WEsrh4aWp9jkrDsR1x2A7T5dFADOOOsPliKNBn4ET64B7g4aIoXZiSJOzeofDeagYx5mBaH3z7XVae+yHmvvrZijg0AhQ1GhJyxBet6SrBfAJpGP3s5ar/KlwKCv/VjbP4J0w5vO45B6KbuOVDQAwCDIp9DptDOLV4tWGf79Lj8CWT2vb0K8ryFiEpxokUcIiodYIGugWT0ltcVIr6jzq/AOPZsOsMpyDJcmjszA3JEqhTmSl12sSyC83IGGkAZjH3iLK1qCN7MBTKDCKjGDQqAIK+D3Vv3YSwp+HQXiOhk8iG/OujZjWkyZR2YcYT/39H32zBnAhzqO4FEtc6K5LIie0TTSOLD0aDYM+d6SJ9e/lw3C/C2OGGW1zBu7H+Lwp0uadeVe9UIG51jLAF6/llJ5Zo98l9IscgPpkUluiENYOLgsA8YJ2adOhNb78iRGpYcmxXrROHkDMKMzwVDUNPp0OWwQvQm2QjY5jeu6xzUUW4Z0+aF/5YwusvfjR2cMWfAdIp1X/gkdI5x6X3AVqWtq95nXFFEBsjGkFbogxSUB55Pf2oVdIuX51m1rEfU0YBIuXH7Zp8ofNXZGjQbaBFCeAe4OOjaLvGBpqe4NtSqqDVypIBcGuiMPBAgfQwNFfewRwm9gIqiq3qvXc4QrGeqciVPEoclJe7mJjahPgmXQhUsIxx+oQUMLeo8w2siDgADnuiiwSBmv8c6FcYGMCiQmsvXNsN7Nqa3JqzbCieEzQbmX0jl0Gw32mHjus5wm5nwmaOk50vbxIOFS4ADTi5/xIuhKit3GxuGEOZ8Mz4VrogJZUPCujyiWVrGRI1q1S+mbVrU4wTFdeyadHxlKURzemMf2MSaTu3CBlT82vKte/su1T/0rOMSnvA33/T5IencPzsDlMcHPclCAsF7EHJuf5F14559W2rq++whKV7LkJcRiruMptBMoGSWijyHvYvfafKnnohu2vc7FnXF9TOeOiJo2HjKFQ6NbZOMK36cEfKdR57wbwrqEQJSEFGvHNsC6gfkW2re6iMmzYGFUVGiNe+NTfv/6UDOx/s4ZHS4AJaXGqvZfSOGABLG65L/mHhDmYDgvpV4uOvATa3TFeMt7mE6SCIlJlkXxgxK5Rh2K5GEH97HN4kIaf/S77Je/i4sV0mOX3fgQwl24U/rcJ0bNPBmajQZ2BFGOAe4OHiKEM4A9f31aNGN85tmj5xazclbsDa/HM9WAnnt+ejgXTEDAgNt1mci45NDxN9ho31l8WSN/SK3SzXeA8WrWYpvgzxU/7VqqXlBxju6vc0S8/Gm06R7ts3UoBMVWyrj2tkihXuCnW1TixBwdJIB7Q3Vl4cuUk0hfNkc3mWVBq5RFrIg1qZTTWLp6iSJyGglLjPeVgM8BXZ3HOTJZCK5vL3vYf1Ttjn8PTBpCMXRcqT9kC+h4U+l3Jzni/0O1HAfaD6CPa4FbvyOLHhJiJAX/TkDLD/xaA5aIt619ahTgz810i7y7wA/e3VQRCBFzsw+VU5hDhuqX+WzBiHgEOu2QvAJszCx7Lz1QT+wCCbBnjcX6eQRInbE2702D9EHwz+jdWfUWDMBP12T0ckT1tgEtcA1Gx/n6A9agb/OU21gJNUadpGv13KiaPq+fo+VuPsyvDZ1dgV7y9p3aRa/NZR+dBxlrqAoRS5GKaMWtNZFpI77S0QBZ+hTbXqBG7RYOxMGzTEn1e+ZhJhQ9/56Ads1u74BpUVEvjVKNBlYEUn4B7g4aDm5anf1OeN4A/H2EtDEfo7w3DV3h/T5m+raAyWdsMb1n0wqI3aO2961tGfIuWzkGfiRFI6KoGX6GYQm0iCQ7nRcCyF/YCoTxdYZ0Enps9dt0Mivp8IAkYpbigizElLyOY1p0+2vhJaRY8Negs8pEV4Zo4JLUMh9iCwBw3oCbFTgKdfUXCYtubHmPTnO0GlZasom+/PRzjQSGJmN8on3aHQuPh2VWnLxvr8AfSyPtDJjTdTrZM5xLBs1QYoKdP7Ju17aZHpTd5YQr3MmyOeZamAC5kw+9eMyOQk/1Te84mUmAU/cYxiK0+9kZT129dOpKHmUHcc+5nJr/6iBw7V3RXgH+gB/uKfBwDG5qE/lUk7EELVWEEesp5X3di8cdrO+iQLPIFk6LG76l5O5o9anbhjQxSS8n3+TsjKa49uUltgzt+alF9VvDWMLulJ8EmwxpOLp/9fOM0R2J9Hk1u533cLU5+y3aWB9zx40Xa2iM0oDMrPvXjNser+yeiORH6OWtBpQm6kTKPRN5Y+17TZKNBiIEU24B7g4GEmhDKB/9U6bZ1nEBWPTJ7H1X1pf6mbOE17TQUL25SmsprRlkXFm08A7YzIS7VamNnxo+wcc3bPcZ4aHMDeojm+lMfqbPqfEkgTlSUniibOL+XC2pULBYR1TZBOQR+6lz2/skLixW/74+OlSNLLs1FXIflW9BZwMPmdbihxNb4P2IJmSMGi0wrX5Mo9h6G9bBHUsEdcZfgzM52+dmHIh/Oj3loYXcez29RwKccjzHcCQNlF1gqx3VRfQYAxbHFtHveEhfIfArO951dWXyAAjtXvVNYb+A3yh8n+uxpey447z8i8BcbzN1U76ZgDa0yObaS291YLzJUrKx4OEJ8vzKQ4voDPBNSh0yJqNKlqwUr653tuXSejLo/APn/kV2fRQxL1HJxf148akEXF9dNYHSC21MFtVoyB1AldeUl0293Xz4Z5n9zTDb4KKOARu3x/tOmAcgTCw8Dj0a6Uzk0QNV4I1BKWJGUvtRmldwkI1YOOVeruF5asi46c3Lm7tfS1lpZo0FsgRUXgHuDcnmHenDm/fSiW4hmIhhY2hFj8jth/VlCOvHcCLz6eiSJHptdgIP5y9pZqBAL3dB6grFwFBDHxHqxXCA6U5hI9JmlYf3UNdxj28C9OD3/XHELvfJfBmAROaiYuguP3arN4dtqGItT+kGf+xuqwCOYsWiojwuAWiyznSDkC6v9ko+jYB7TN3P+fPGpC1gGz+Y/6sfDIikq+qyGDESXryGEjBXgwjtlcnm1SpvoWkq0gqdE9qzViRTLTbbJt1WqJ0TXCPjH97Wbp7NnKsSW7UPE627knq1WKexk7uzK3X0M6giqlrHeqY4Jc84dSwi/hvmZ/d4Gm0iwzwKQmiDsw6kwcu2Jxx+cu+wc4mJLjT2FZfxH0cpTIlyFSH/vIKxdsqp3D5XB7ymjonembi7yLKYA7xqQ/Pbg0PiHaxTf8qJy8nywCGDdxQU5ndKkBCIKBGmxgTJVI7ljG+CPy2/gMuFnauQJbIQFyqNBTIEVU4B7g29shvsIch96fMDnVN+qw8a2P13GSdK7p/FcJ+aDIquTXEZalZbMpYlZfo2TN0QmGa1ZA/3/wjIHBAqzVxgjKiCZZQmewzqdHTQRVSRV95r0Ti8GVcp9bvFiRLD/gbl2LVHWCu84830HTB/1d1GmnvU6HoZIGaJ8cfkNitJ/45M9mpIDelmX0pgI0Z+lZOGv9AKo6mJQ6uvR3KA0v/igbDqhxyNntAB9l1FRVVAbTMEGORQjJb4a0Zm1MMAEKMBeTv6ZtkFA/7kpQD9DSD6FvHOUJa+PHHRkR9V8iArRGyZ/K7RDOqKUomktTldJerEgqD9S0P/w9OBTrvOImHBwD3X4bAgA1sNFvlBatervW0bBrU7kpDKFX7daHf3QEr39xx4XZqQU8yoftoHiJm4kBEJnp5NI/QT+XeAoz4pvz0D2BtQ3rw0/o0FpgRWPgHuDcHMXcJz9EeYt9y3j5W9wBJrIg+eprSKdjjDA4SJNYJlvzvCTu3OdJ6n3il87t+pUoWfE0kN3I+4yu12xCxeHNAJ/KR8oLFrb7UChPwPimkVNMXYjsI80Zy5A32rssA82HCkMp/5u4zjBiAueer0RJVVvAb2cSFSdv92OutTLUSl3eEvm6sZZqh8P4YFus4aLK4/XbLBA4qhCqPjmHHjnw5ED133iJAsVvysIK8NKeKbAhSkB/R7gmq4E8cDUddSg21Bq6V8wYHXkZDs5/FF2N0qP6nLpPkGyt463zxVTyHnyn9A07obXH/OV/BtrUOW1x/Diymj0w9o9r1VauymfXD2jzWV6oy+9pzhY5fXDqCoS+lPN0imLjrtJX611PjJhN7M/4uXrXVk7Ur5cse5FyHRUswaMAv9scTHSBHvEkS5sYFsIS4C1I0iGQrR7eEAZAQU0875XjNvQhyl8SOos32P/8KNBpoEVy4B7g4iKgI8VhQLIsWtG/+19x/gES/KqqSbbl7rSKE6NsZr+gkn3+g6rCN0mg3cdr16pIGvHTblR4Y1AMgTDqJXEtA88hGfPorF+503EW9wdD39HEfg2bAmhoo0MK/7idD2VaWtsfTVxlp83v7PmyrZS2ntn/OL0wxWtB0DHm1DgttPbkSNTdYlqerLADoLBI9P/Oj+zF3Ey/UGavPrDjW+Nr4fChLGZ3oorUYNepssnQkWsBZtQpnBMNJyykDr8CQtMUmVuTkoDclKifK756hrRqiGxTrspbq2An5SQ0Prx48eU9dU+v5xqlCcPFjI5yunNXi1joAtSmR5Ua3oaM0Nf+XD0rcxdqUzYledgeBesH/vtIVa286WbDBJVYT21YrBycmxDfOSfPKIzZjOc482HjIPhpDHI8RqLMwpZUWggJ015PAJj3e11SE3vP7t8z0PtDKC7rb5oFBwk1+LsbftkOhqG7wyZy4zA4Ohopwrg7uBxGDvFv9+ML99A8PWkysMGZMcZk5Tk+hlzviZEWn3frtiDq4VO/yeAQAZAn2Y5N7rro0GogRYHgHuDhI2mSW9ipYgxJSte0CsA1s2xvIDzhrrb5NGMZ3aoJxg3t2zK4yLP9xeDAJQ5DtV1ViTdmftfltstz0wBSoiEHTirXOZnpMGiOV4ovftFWZ9xmnaHETN1LswwkH10JAVdzYBl+AIDRcYifZHdMfd+V9kI0A2J/3jaeHcSNIMg8xTE5nyAShqlTcnU+EZTvIsbHUy1Mr+M6VeNfGmQdwLfMvWaxpEM41Y+ttoWjk8t5St+AS8IqadTXjVkVyZY+3TevnDTYTFIRsz+m3RZKvT6X6IRDHVMCF1WOMogO10RtcRnI34nJzmOGTOFRba0D+ERwfLHips9utKONVGCd/9HC/V8TBL/Y7eJ0Lan7hvK2uCdLqKmMTlLMGP1S3BlN/5BxyuAFE7hIkvkGP/ZUu6QYJPe/QUbeTNUtXgAxwb+qhf6m//iMQUzM4fslQCqp2UYMVirxiCF9rssTiHtih6s9Zquy6B0u36KhZqLHDVTRKsTaOPRblCJRNuDEpuyHaRTar8L19RWo/vN29N6+nscELpwCCSoYKA1VGrKvpJSlG7OaqNBm4EWQ4B7g4SOpOGZa/hWi20qD3wBTvy4LkTA7mkk/xkaM/dSbea8EeAr10Zh3sHpbsmTqCf5VaKx8xhwhWNJR98PAthWOUrs/JeCol8PoH083regIBG3/FaFLfWRnKFfGew8/2sP/S3X/ojfzh5GwDci0YqTihObFXrn72ovzZFD5DDBqYuaBM+aqVwTo3k3IgE09jS8RemVud08hgo/sdwEZyfn1d6eVbvOkBJa1f3gNy5dNkF4GhAdVrbLe2xTCKtXZSWKby66xwjyl489s4fKC8c0RMNKDLvvJMb+h8IBTqQ9pfaY0OfPDO+f4Xu5zwkVV8P8lUmu2XU9MJbXaEGsbzpZCkoXy8sTHQYaTmnyoGUa/f2ie0WGI6KIIy9lg6lr578obitdlSyQZgvjl2bKhNaZJ6f/TvH+E1UqQhTycdd6HLq9HNt6h0c4AYS+mkM/S2wgMNFyJB7o1if78nQKzUCtzbtfO8YDcGJkMpttYnCS/BJD4vpPvtyH5IE+2jullTxZSXTJ4vWpUX8vCgrNoOsmUuDlJnWKJKNBoIEWf4B7g4eDoug0uSXw0lVINpljxfRXWH0nooiwmOxMcr0huIJOuuBtEVKMmK0LslzG6Wv4JgogMu5srteM3W30T6gFnSBx66rt0jzgqGvXIcIIcaAb1x/2CFR4DBA3CPCC1cjUgJ/BAMgGLB0Qazyahp6wnuPPQskdSHlPKwhoPUyRAuBEZu60ST2nNhoQoTOtYtB+ClQrNe22xR5HFG94vIm29drWT5uTJrmQza5Hl64uzsDMdcdqY+J3CuNFO/J6VAF47qfqC07BgyojGN6V8DtMVvgv0FCD7QYBqt2D0l8b9xRnlySAdrdgKfc8plhAJYWTRC8R3xMw1oToNE3x4oOr9G+FpqQyaxFepYRJ+iehHs3m0NZ5ne4UTVo4OR9h3ccKrBnAb8QSjpr8f1y2TT8YB5tdVIFc7URMiZ+sjuITAWmfe+C6r4Tq3gsux7esjKIrl05r9/Rp2IkyaA2vE3jQJBjK62YyEZTAjJew9sWFqveJzSc0M7ZYOXn97vU+eRCTn0f+H70Qk1hkqv5OnpLV9rigkcPBZbRMr+Gto0GmgRa7gHuDkYSf5K7RG/+2yzegSH3rYZ3sohlEX9LgJYX7ZdT7kkFiZvELnww+tItzN175UGpDDVbzyMQzi2OWA2C8D/B1crzcCTk7cW+FWKwdSxO6xFxcG6qt5bMiZTmvNwbyhwjBgdYgdPWqM8lTHQfFZnKY+UdV2dyuHmR7DxsokiTe0j4UelfC+N5lmNte5TodzUfeTSHVno+MVCVcITaCHjfWL+0odpkkqzu2x+SvgrBxt9rstLpETQXHyhV8nXB2zp+nxikTpyR9cESJtjxul7tFVVNUyQHnKsxkOnuqI+F9hi7ac4UIoP1A6JCWjsV1HHsMaIsbZpq4WLvIrL1/OZT+xL9s6HNTHjTjcJYar7tYzmjX1JCX00+lnWowYlv5IeccufS+vdWxkdE5OAzMkYotwfwxTHAwKssog3sOBju4WYPqYRd/oqZ0rjDDsLS6XY/xxhDghcan/UrOJnpljo79961qO8qtZc0KCbuj0KbFcWHLJPY1To78eJFoc1STfRAVTdTWzP+AyHUb6PRJ7bRMdGTpD73JtLCwcV7o2yR6hFqjQaKBFveAe4OHiJ01Kfmget1dtM0+VsWlowSasyA/o4UKPYKGgSVc2vej4k7qkr68/mET4qS5cwciBl0KpaMH3EeurCkpVGYe6LrK2Hjuoruub6dSXWWkoHlfANZG59uMt7uQt7z3x7lJTiZdonlE5rp3ciQKdLFctulW+IkiuDAYcHNbkVsKsUxpG8qoWQ9io5yOM1TqhIdjsFDt9LraKT748FlrlX5wTSRHf3iWmR7FFE/prTSMKhkrLgZLqGIpP1naqAjFwkr1bWHvuEpNvt2epAGlWpE3GF94lcdrtofg9HRqFH8/6zkAvp533GJrZOi8FDp1dcQPqvdZRF9/l2qFCca1ShwgfAToh4ZsCZN1gDErcBVA7YqdpPlYLFjZV2jzwZi3NhJfVHX2iHwnJcigBC50JEOP4sfFtsA5QI2Gk8/9gRb3sP40XMrX5pkOzKshWkzCls/Q2HbD8HjpTjnEVb4duX9aB8BrIRPsmeBPnQ9irtjlF7M2f0l5trZNn1dNdhQDzd1d9w1OFgT7nymeRMRIJtKO678LVGaW5Fli3Enbo0GZgRczgHuDf4ifyR3bRFGnh0xXQbr+yAs3zeXoZ548velGV5y7FY8evO1gYoUlt/pLu2RquJfaNYk8eT76oiESvqQT2+nyouin9kK2OvcYs9Rm6rpPh6Cu45iWsaEv5y44FSFRMyvtMlyq5O2ztwbhPKy3Kw5ROoIBqyfghvvieDp8cNq+FnIdoF5bV0zxJPYTSqA8myy82PuiOygjTPSUlIxnEOrZN7MwkQZCjg5hs7NHmSnWANtueFet2K74FBZ5Zw+xn70HjByWZ7jLNp9Y0OTAVQagh8wgOFlkWjrOO20MUfab2GJgqGeyUQCBSJwNMkmjgb6WXArCPtafiwTAgcwcsNpgUDy1F461zWHQ/qE0FAcZEeyCN+qzGP+O77v8Yjhy2uF8AI0fDHnk2hpIAQLgZu794q+Pog+17CnFPZ1+UFTl/ETF4mj8doRQ2zEV9GFBGQk7BSyJ+npQnZ7mlXlWevPXJv2BkF4EumVmExb7YoCsKNHYybJuoYacDftUaj4SufeLTospE1meMmC0J+dy4eaySlwuX6NBm4EXb4B7g41/onwSasxijYMwbHpsu/W3xV8Xx0vz9/mgwq1RUfl4emFKJYOr9Pg4/OBnYIerBNLeZrHK+5ia8M/d/Zysq3BXhv6zv9fQb7pQ4qQA1UJOYPB7nKIDultDjm13wHHwt1xFxagBKcrV3OibHtfXSDwux3oPuU3AyIBb0zssgDgmrNqE3vGhOkc+a1w9OpXPolDZSH4sRT1HIapf75Sza7sqWrJewOrrHNufDBs+p4171afY3x/+ig1Ir66ZSpJhtoZjtgG8hLa0LehD2ueZBYCe4WUWC2kcidjc5UgYtMFIShLeu6miQFx89RzLSt4t5IvmRRsRDxMrdsrbS35B6Rii+r3qTvHrNs7fGDtBoaFvi0wEXDNLQ5Hmae48vERisNc2q4mlTT0TP79dp+axLgPFpb1leK34quzQ0orjubhGGzGI65hf8mqEvLg/CzDjRw+ioQf6thUGltY7BM5OZ2M7SSlcu32JN8NT2RGP1IWt0dkyb4QAgSnXrHtIswdpzjJ2E7AB4RXDilJXCXmyWWHgHTwp1aNBooEXq4B7g4qGoBSyZiZS28337jWKPvpsJDb0MwAqWsMpBP6Saj78PFOQ2mxulrocKBiV5Rsi1IBp4gU/B+Nh5ncW2PzrRjqgrdkHP4a2ilwyyp/jSXVRQ+FWV9DbH/WS52sp7DBe62zMfTcN29m0GBY2lOKyFRNps+AdRqm7DWqi7PuSuLmwBVf8cYsFA0m8HN3XoP/JcqWmSWJuzKo6JLHXUK7Kp/9edmc5v78fqiHzqcBQHxlt2HHj3vG6pPk0Kt0vIQPNfudC8VpntBup6kIXNuz0ZjUZN5awuorAechiHSIZ6ZN44+/2e+EtdBtsYTwfjNPqzLRBA6Qsm9hLOPfPe3WtiJ3kyb933OB+BevQYBjcmZG0lSKgJyn5zYm8j6zP4aQGWUAcVJcVvzmsmqn5QZJ/qwET2urFsQwhXRv/ZOikGgQpzG9eoWEK86zh7AKLH1a2wkcK4m2uPxgKdZbKk2/51ZSQYFrBPTXREWr6gPx+XuLakd7KNsD+bygi8nCCmEmzITp9rbuxnh+Tt2tkWK/SQPH5KcGFmCILp1Z+2hKjQZ6BF+eAe4OGiaJTxUFDfmv7xRxbi4BS5/t3o+aO3MPqTg+9OS/xZ6JnxeZ+og6Poag4Qub5eKNLwmMKHsBb2IfR9dExuYKxs+34ndIDDMcqnpDZ+W/f3qpNISDgajEDunDfbO/vWAexODI806F0sFITEFagi9eGAR6pY262VTIVnYDsjaxhY+WxVAmcwP3ansY2RAD5+PdyKt3zDhT5cWynioVJqNIgt7MkPpkrXSGFomdo5ZGJtu2oI/ITaaQx+8I/dJ/QR0xiuZPisSfM5uOZROL+nlpUUH0Fq0Z47rcBZn8aesoQ0aUHN/pNLFPqi1R3AWHs/FIA1Zs/Yw1ZhHMcuZ0pRK7NzNqHwSUy6ej57B3Ij+jugeS9/wQERBsZcvIGPseh1xzdev0KaMTenKgA7i4CjO4LbSkULjf145rMFwOcL/jKiliEQV3/7X2yCSJg0l7bADtkg4HLiVqp22MbGpxo7l