"success","timeout","failed_images","failed_audio","failed_video","trial_type","trial_index","time_elapsed","internal_node_id","subject","audio_id","rt","device_id","view_history","stimulus","response","estimated_stimulus_onset"
"true","false","[]","[]","[]","preload","0","735","0.0-0.0","kdzn8c9r3ny3jfo","-2024-01-29-01-09-36","","","","","",""
"true","","","","","fullscreen","1","2858","0.0-1.0","kdzn8c9r3ny3jfo","-2024-01-29-01-09-36","1117","","","","",""
"","","","","","initialize-microphone","2","4564","0.0-2.0","kdzn8c9r3ny3jfo","-2024-01-29-01-09-36","","a245aeecc0339b94ca3b74e02bb1150e9e1aee21df4e57afe28caa91d36d71b3","","","",""
"","","","","","instructions","3","6741","0.0-3.0","kdzn8c9r3ny3jfo","-2024-01-29-01-09-36","2176","","[{""page_index"":0,""viewing_time"":835},{""page_index"":1,""viewing_time"":1340}]","","",""
"","","","","","image-button-response","4","11263","0.0-4.0-0.0","kdzn8c9r3ny3jfo","-2024-01-29-01-09-36","null","","","images/instructions/timeline_0/1_Barck_Obama.png","null",""
"","","","","","image-button-response","5","12071","0.0-4.0-1.0","kdzn8c9r3ny3jfo","-2024-01-29-01-09-36","804","","","images/instructions/timeline_0/1_Barck_Obama.png","1",""
"","","","","","image-button-response","6","13883","0.0-4.0-2.0","kdzn8c9r3ny3jfo","-2024-01-29-01-09-36","null","","","[]","null",""
"","","","","","image-button-response","7","18394","0.0-4.0-0.1","kdzn8c9r3ny3jfo","-2024-01-29-01-09-36","null","","","images/instructions/timeline_0/2_Leonardo_DiCaprio.png","null",""
"","","","","","image-button-response","8","19262","0.0-4.0-1.1","kdzn8c9r3ny3jfo","-2024-01-29-01-09-36","865","","","images/instructions/timeline_0/2_Leonardo_DiCaprio.png","1",""
"","","","","","image-button-response","9","21068","0.0-4.0-2.1","kdzn8c9r3ny3jfo","-2024-01-29-01-09-36","null","","","[]","null",""
"","","","","","image-button-response","10","25583","0.0-4.0-0.2","kdzn8c9r3ny3jfo","-2024-01-29-01-09-36","null","","","images/instructions/timeline_0/3_Beyonce.png","null",""
"","","","","","image-button-response","11","26418","0.0-4.0-1.2","kdzn8c9r3ny3jfo","-2024-01-29-01-09-36","833","","","images/instructions/timeline_0/3_Beyonce.png","1",""
"","","","","","image-button-response","12","28223","0.0-4.0-2.2","kdzn8c9r3ny3jfo","-2024-01-29-01-09-36","null","","","[]","null",""
"","","","","","instructions","13","29978","0.0-5.0","kdzn8c9r3ny3jfo","-2024-01-29-01-09-36","1754","","[{""page_index"":0,""viewing_time"":805},{""page_index"":1,""viewing_time"":949}]","","",""
"","","","","","html-audio-response","14","32282","0.0-6.0","kdzn8c9r3ny3jfo","-2024-01-29-01-09-36","1252","","","<span style=""color: red; font-size: 24px""> NOW RECORDING</span>
        <p>Please say out loud the names of the celebrities you saw. The names can be said in any order.</p>","GkXfo59ChoEBQveBAULygQRC84EIQoKEd2VibUKHgQRChYECGFOAZwH/////////FUmpZpkq17GDD0JATYCGQ2hyb21lV0GGQ2hyb21lFlSua7+uvdeBAXPFh6CEK//nuYKDgQKGhkFfT1BVU2Oik09wdXNIZWFkAQEAAIC7AAAAAADhjbWERzuAAJ+BAWJkgSAfQ7Z1Af/////////ngQCjRBiBAACA+4P9MvwKf+ZApO/ouFqJUsuaU+B96MUrWGzx6EHYC110/f3Q6ms9vMMp82/uxNiI+uMH6Ze1PQeO6tFJnK94EeBkf/dJr4yOwBYB8AmwShY9PuH1wqWJYDslF4ibA+OPUl1kKAQJjVeMlmTALof7GOGqR61OmoaSHm3iCGCGhbvWZxGoNJaoAJimK7KJGc2wn7wyT/868GDd+o/RnOaFgeYSnfG270RGF3ZhZbbemCVLMdiM2FcQG1rZkW2BxFZv9/uUNusoEF+W/+nonLcnnVeS9tOAAAAAAAAAAB39biUxUgGSgu+s/36/e8nGXGKm6FozLQKZ6mbSc8yR8Z35JNsGVhMWooTgprjTZsSxhVvHzLEWJb/tYUbpB876K+Wo1AL4QKI5pclmrIpBNviPpruF/G8BG9CfAT/wmg8oLfDMfKfTC/4D7377DIWBGaNKmy4et5WE8pXvokWdUD5IOgjlW+AJC2TJe8hL1dIl4cevB3FqoOXZ14UYuRQyu+Jm7377dvz38voPRUnjJ+5cw4tVgSw3pcz4pEnq4e8ZhXwhkQv1uNyw7VsO9U+9uNWfwhCxaz+H1/mwIhPQ6sU3BCEuHgFlczGzCkqLYSAidnO8AoeH01O8QvbPAge6rjnbf9DMEgMZF5akqBZmbRiQLbcv+qMshfAde8edWdFPVlZL4a9I8Ht8danZNxd16t2Yr0jgEgAVzLjL0yoe/kaWaUTMaEpbB3uNLnWIs7CaGbJWjNWiErKKM0JqxfHcN4t0W6S9H2uHzS/tnRvtQfJSxxHokBsyU3IarCoQf4oYyUyPxpvn6oxgmOH1/ip+66JvbPfXVVkLF6H9A6qLf3VESXo/2LY1/UlE3FVNAHu9FTZviiPSU880lSFVSxJdOj9QtUTeaikc2kQgyzp8aNz8NoZ+G8CquyeilFn91t5NXauGMIMprLja8nl9EMB0PhBv5dYy2+gXqtrKWrKJ3aIC/X8HGR7h8p01vQ0XBxdkZGEg/qMzBIM7o9FdbN67ZbdgsPsoSvTUwcNFuRVNsl4Cmh9d0o20y/RHgIgPNoWzN94W3DOIN9KFURwfoAnf9hqIn7qiTtwCu3LKj80bQ9aJ2knV8beiY2NNeo0fLTtjDm32BZVzbBeaJLgA0SNrI+ooBCYgaWeqIXIhL4QuR82cMtawT03p5fZitioJpH5HbEcw0sL0WlmkNo3IjwsElXnnTGy/6ZQL2EGwfJMIWFlCpthu7ouHNkobPjswScq1S3cClJwfABbD0YOdYM2YH8AMLUMtPRb63PijQEEMA4kjyF1CFBdW1IA2NGYi3EtAAVDfQZvopcMBGRFPFq3jG2pfDAsmX2uJiQJVgAKC9fkAeFIQ1GFEMlmF+bKxeSQra/J0vAG0o0OBgQA8gPuD/gr9C2EFfz/Jv9WF5fSnalANuIKPRAKgs9zAAIS/HY3thJHvKOKw58aZwLScbrFpefejQIYlcwuY8lr2+4XnoFPCAJFZNjM1jogmArZxOJmb21lrgY11x9rMClz311xS4G4tLe334LQBMK76KQuvUwXpPiyPBDf8V64XM5yPMgRr4IvRZ3lUqLpsytslgTNWszaG/hW1DVIpOQuJvKJ3rxCqIziGZLvGsdy1E6mfyi2y8G6TYNra0M4B70Z9xicPOBBehoxNUREUa4cMfu1Bn25wtHD3d0d6kWA5TZefgjXyKSDgyVnQiefKQ6yQ6U0Q5+4JqqyTY8kYLvH2ZQawNYZ8IcFTP+Hs1G8H2v6kmq0Jk1faOTueBGLk/USUeHdlmhx0PmynIJ/ZjmEOgfpPame7LqJEB50Hp6BdUh9A6XqDJ+6NIkt7DnuSf07SUKwyexjdhUR41zP131lvyNNhoOHcmeNfLYo/Lh94IeepQfdQWs1yXI1BofLoGVOaB+QU9ugEs+cSpxjrF/xWYpBrIYeh2/DmQYQ8VgIHDqflGyLRv9F7lD+BL3wTDmjc8a2IRRfl9Ka2EsqpKy7gVR+TTu9sCjZN/yl+udPiH51O1vp9EGxJAAoe3GXeidUURtigK8Ij9ku9GB3JQBo2D0aipOj2a8Hd6JewFYKsxrGDwbxr3YMmjaZz6oWRNKZkcqU2v8LjFtXgQxcZ/578mUFw0uqxFYKyMY9wmkfVYx+lxcCJ8yPJ2dHCTmEvCGe4vd2QnqUMYNAJ1o6CsIj1hJGCmhchbmEBB5FrKUfy3+7nzPs7uk0VcqinLLs7JJBWckn51zpQQmashw82rDUkQqAg5gs466mst3pU5BEFlEBc2K9pZPL5XxzxOKaVH9nY39iX0b4NIlc4WTqCL7aFyUCyvZb3fTs7EXRnwGgAvyPm1ein4ZZOOrOLVzZcEL1pu/fMgid8y0tgHotNIxHi5beGw1nzVRqPzA/hG+ZWzbBVEgaa2g5llsx0XVpMZm2+DQ96ePbDHWynXiurcixIM7flqp99lgowSIwrteFaMtWgsEVgwVMs6hfk5mrnsDsX+Gl3ehi4vw25ZfcKk8tssIcMZOpOyNd2LwCHTRCvLlhbm2rshrGe9j1710toDA2VgaJjnOJ/Yz5wm6inkg0b21jh+RehxI+oPlUqWORPo0PFgQB4gPuD/w/8EWAuPH0FnDI2dOOnC5kgglwo64Xh/AcKDkFK1c3Qj4QDSxJloigS0aiT3eY29TIjTwHvY2Xo5Karg/7zsx+x1Nj1MFCHFXWuoUzs+axBezrwXTI+1jLMbxSmKHMYXkBeJbC74baxrJd3e2YwDWfI7Hg71XImDSQ7s1i9wxr7bdsIsjRYIh+46vyxcZsgDYojn2J8GXKWF6nirl0PBrO8y8cdeqGdWOFGh4KWb7as4t7oFdrOml5x4UkpMrqsmgdQ2tMMxDizsMerkjL/nBumtUm5mJCOa0CXBP2mPCDuviAWnxrMruDPPHzDDAev/QTKHC3jWP1itZzG8tp6lQPrqvq6td5laBzPIdsv7fC1BaWQBxVRDsdX+j0iaGLTNErqFTatSJ5qhfidVJ3Yg5eY+64KHA+WZMK5oQQ4omA+zx4+5Ye5Ojsyu/jUPuJpcKza3Ty/QKuqYlUf61wjgik7RyMjFJKRtTA8QjU/5c7fKH3ym120Rfdt81XuRvWRuNodvRMmm4Nh4LOtrF9qGGUTmH4hBV/oVdKI00LEk3OloWAAEBuOsWkoCUVTbYV7qlMXjzToCGB4TaMnYylia+ZEWGWtVloBvPlV22aPyBBdy6n9RAuBRKfVZKc+E6769zyp2k5MX3MX63c7TOzKVuhvXhlcrX3AFIJRd4LDA99O43CChCTXUfE78LNhBH3cQG5OMn4ZxMMo55TpPCvLcJzb3mXkrGgInpY0Owa6QZWuFITWaqYnqzJIsr3SehTiCGRb0s9WrWD8PlKsi+lm5LQ7YSA0h3JqJBuktNJg4Qs156c5AmgE6cjjgCKwdXeD6qs5R8GleXKE+Msvna2EYRr9xZcO8bU698cp6We/cBc7PCc151JOMzK750pP2NIprRR1rW02JRwgRTT/j8Q1kfq1ER5RGV579D1/3ptK0t2fqGIJXQRz3PTmA0uKTVIGLlVF5TETg4jUcrtV2MOZDIxXTDtzkSZndve5yn8AFxn6oLMTU7MbgD8OKGvSi9LNOgboGur0vPKUZx8hoaepOEHsDWoZLlJ9oxUZwFYTKk2C/Cf0WCycsWRkGky4Y8JH6+KJ9jFU0NipUiNAFCaw/34JyVng0UJxv+d90WoegTXNe3+o7ERcy0k7VZ7ODeafXyAsw6vFAqpK8DX/EPp+afpEmdMySXlw2y6pJED3pnRQwhWcOP823HIbnG2qMHPMb6FJOhtwSZ5MS6/35sO3S7EsVVR6TV9UwYLj8d5f8b0LdxgfIZ0a6offM6yxxb+jQ8aBALSA+wNgPi55i5fYhJekfPsfV/X8qMcZqYS1oXx89WRlOFzxlXzKqfhOmEvGfJnyDB10bdbfYjoJmghT+WUGYsHj3WQqdiB3ywSuDFYjIrxDTpFNKodeTa6Pk8EeQ4TxW//cDSiH2f2ELuimWW0c7N/HRzwF6iwsqrzqj4Yxm3sEWnfZc+Dd4R6HT23nwibX3n3HRLgXoZGetH0pcOTg9QbLM/VB4V6v6hDCf98vPnwXy0K8v8tfwqffKesZGeO0E9AyI0aQC9seyTSQovBHZFNmbFVvpEgU9niTg0a+Lioqmh29/1iSzyncupbJKHxES1Wk8J+l8f5uLxTXri1jwy7DC/hyUoD2bZ0tY5P19/SFcLHbUdz9l77MrQKpNaMeMbnTQGquz01T/0qUacjX3D7ESb0TchKVhkC8rylgmhtkeFhvxGBrIHb1PZkrNGZzQVnw4B/rVyIug/u08s9qJ3tA6WjlZeYx0CPrqSEiYCMojEiq3hd1d2VIyJogdiWCTfg/0EwDGhzHfdUuZhYDECGojt38YO3Tygr99oE/rlcmtcUf6WgqTMK5Qdd+qSt4VxROVfmrwu4sERAOtNm4UiPJuufq5jF4Gu9TPZMO9/tQC5WcMxufMHmNIhveg2IuGazxe17mULTn26VqZlWwKKC8p/Rwv/CX6NHfg0Q6cOwgxy72H78ZeuvCCLLj+k1go2uczKrHKGnL/f0tenjeVcRN3Xar+nf4p/E12zR6Di2wYvntgxP+FK+jm8XYC4vk5CsL7uYQ1LGBAFEUYEadaUWzeFPfcmgjvUZjDpGE1fMUkXosr6WfdM7NIhOmbXky29bNX492twgaguytrEmKHUezxpM4YRr92UruwvBH00O60mK5fQSe+QZ2QZhx91LUrPVyrBEy1PzObOBJ/NMEXUcbE/gFXUq4L+1wCytMcV2N4lY2K8LR4eLDRoUWDwkw9O85L/aLVF0dZBok3u2b3DOWbB7SM7wfYj40RBoTX290SX+GJq0ibVjP3edD1HLDI4b/r/QrCtze8Rz2LAPxeQZ03z6q4Y9+AFw8eq6vjkx6cjp0AZTh3ahsPBi3B+2qYCzfP82c5f5oINDWwHlhikQ27M4tZ5EJYFb2YrxomffdoOQ09wIBQHAlOFVoMGW5Mxl4sLY00NdBJmB+1oa3gkoCevFkfUfXNVXJPYt/jvhpjroCp+m3u+973NTds8ytpdNR1CCk1pu+fxPScfYZcm89fSXwLRWnXwgEZth6/rUsuZon58nLswU2iWWV/qaFMowRq6ajQ8aBAPCA+wNgMLwaYpX//iXiei1WYNKBcRNgCzXP5KNX/SlVBazGFzB4rIHsPFfJjXkAA1Zzdnf6BTuNW1Lvt7do9bZOtm05nSPYYGoZR97rNuXtU15zl+aSezjQHNr+XgiT7JStmw0yQEYdcM6fAV8CvAJO252sij0P0G+cY1HGzwEPjhGbOU4qmd/O7NAsEfkycQ4U5Ni8sXWr1WpGuVPJsc332Tfb5io3h6+hqF3wD2sPkSJldO4IIDeBw3ceIyADzVB/rEZHUbqzE5kOIR3jqmo1exWR1LOworCGAXtumanNHYwDzn/0z3eu/+I5iFSqMB3Ya81Oti9H2XC96mtWo4StBqTlxvDVcqOwC0ruLUeXW5ooTEL7C7JMmSqBfspTLYSihVfNhUDM+5u8GN810RUBAb3keCMfwV9zmp5Ne0G12XEOk2BrcdngIwW9B0a3JpCaDaLDtvBi5jRxoCWe8og9OUuf8+8tfOvLutNUmxMWRM44HAfx1cLEWWaRH8kN/2tAitG6sJypDYjS/Qdlkw/Y4sd0zsegxe4v9wV7jEQ938xfzQ91JhcHtixKrNMYnf7IZIF/jlaB0maP+62u3A5B+2B5d2UIIwXOskNERio6eWAeblE85oQ1/qBxtqYmMYtjQDa0OOXVGxu7rJ3tyM8H504O3N5+k8RmliFQ6SCuXnFE7RlbkdyrvRkF/RRTWvojqDDnlgyeRN1qN7B1iuoaCTsHYJ1i3l+adLlByYlCwGtm0DSJJcBXq9qykK+Oi0/doSgHHAya+zs6l1X9Oq4oliar/4uNBOzjFB5/acuIYkkXDHsExAwZkD+vczgKdqgOPnxNI+oFNUqGJf+4nbRxMaH6YRsWi+5Mf2DHWSnGJLnI1Ly9AHglbGmVlkgpY5R6LcXFEE+5rdS5NJz+yL/AqWEgZ5/aRF+DtReCK5RMxZXgr2c4zLaWL68AIIBGY1JA8uKiAPmDhwFoK9p9SRdyJMXF4LfrfQrxy8BMIMIDBYONPlzQPlESVwCLUZLLcpZUyZu8kc8W15IZz5gYwobH6FATifmLo4yKy71HHKE7m9eHMzFwv33yyTHLIsYT5icUgYZgT/G6ia5MSfX1Es8cOqvXiKIjYfYXrypf5V+lkar0qiKN41WzR32XvwyEZNS9pBSbXuEvMMZbbypx8pzsF5HfsvgOYCnwsa4Ti6WFuOt7bOim5H1D+CIsBqVa8nVfBpjIQybjwwx4hU6qE9+cAFS5n8kwkw6r1xgvhkK4IKVRfTIOc/9f0dz7TKgjLZkAWT6jQ8aBASyA+wNgLgudA/ZCrv0mtU4AKxcvSVVQqz9Ll5RS/lU+2M9Ae5LLpkvhcfIDXr9ccrK7Hvat9ZOsbxtt04Aedau3Bkmx9B+rfj6C7u84kH4PKNeKvaAgO0k3JPw1UTibtS+mpUDc194cNXRNpjaEzYiCW1ok+ymj7gFPNB3D+wQQzsGTUpEQXy28mlZTRNOPuj2aYprAhPkvV5Z5OkcYeXCsd+gPz5adRMMF9xb+eVxybVN870yliYUQ4/nE4hoX5tjT67Gq89xloO6xGWSOY2VGGaZCvp3SZ2i13u5GX6pYIa4LR7zVusct9xxqmTzEnYpfrw06YKgyjmQ68jIJmO3uGdghtR0SXrtn0+WRTjsKPHYekuUHkrGSPJdIBLDRFeQO9nBLO8zjQrTWIly2Ru6LgYKyGfiIijcb2iwvxDFVz3DRgGEiMI4c4YowyFyt/gPgALtjGbbaQx5oaMBI2evnZzLNAKWn6jAsQgEsBGaGraKFPT/2volzWVhIIBo/tc5UcsgxGt28ASmji/XQHwlaSjFsZTQmhCfW3glytsvxy8RE3sxzwD8pr3DlaISGP5pCDPlb2wIDR72RhO5K3zDKYIfXEp96SzzntmxEqq0Z1P46Y9Oq5MR9j672ZmZ0TApKfA15lvmucdFMh/fKgXJYT1ABhugk3lTYrYegB7n2t1Ek32cdTIshZCF5HZ/pdiMullNRKZtylaUq7WygQDtkHmmJqgRvpsSplObvDdr6MQgoopQUI13oTnEQmZdrIeb8wdOWkx4TG8src9FWDrCiVOJZHewXOV09kSIn5X/Ca4GEakgGdRvkvDCw6CnUFRGLkits1JTai5QbCi1nY5SI8ZB/YQWwiRA43yrorC4kDsR3YShEHVdbhJy3csDTYmM/XoO/JcuI6/1wr/Jd//G8GrhPhVkFB4H5smEq97tv1gZOMMHBRqdzuqvgGt6vBnLUC4tzz+pwShkde7epfHIZOYvhHvLFkTkCIPP9IqHi0ulsjMZ00YPEGzJ5iPH97+s5cAbdsWWZVX+hZEE/VLkxEB0a8Ubcmwf2fkH7DBjvC2fHz/shecWtCmVio3k+BuDcNpUgbXi49ZKmkXeqOLQOIunjPqZ3yuPQvmmxBq8u1fisqkkLPuDzK6jTYLYhietC9BXEOxglLhvSv8UkvQw7gKs493SXTwq2uwdAG6KMwMsRxLHgsTx0ArZqWJMi27oopQAdFtkraLB/CKlD20q1JOv9TyENjf6HHQlAXiA1+hXV3B/ywvlbtLYrBjhBDpXsO2ajQ8aBAWiA+wNgL+LGH05kF2KKzKdD1ljj/7j6QgMT3Pn7Pj0LwRDdBiqQnDBMsQSr+6fQwSGYqiDAnhYjIIdZWjYpJm8I/0PZbJDxzK0h6Oh/vLwQoxmYiXdyIex84ALpdUovE2JBgeWFpwiJw8tNp+RmYz+WRXUNiyhNeuvk311HzDmtY9FGFventFeKZBhh0thfaTMdha1UeMJTTLKEiZyKej9mlRCqDDDawYkKe+hyAVcRtrgFeMQkwWBmqcsfudDVi3auccJVrnFyal8f5hh76HR8ofBRI5afpPo83DhgupnC9uNrWSyzCm9/xz0XiEHgkypbP+uw1VDmFMPpzO91k0QVrPzZq5d8btIy7NdFOauZa2jZxO6FbHmxusg3xyQs7j+cbfQwogGTAWAy4XgQ/w/1eubP8RJHnjKqJRpw1lW2Ss4MFGBtu0QHLwnUpc8Ji3hRGPmAtVZ4veRs9mA8pNMwoYwRcX3DyRdan1y/pOIQAQmCY8a3SdH92402rXhiTucp+/C1wl6sz0hveALjH1jFKQKxJ1oapY3nLow+1rDUqu1zDkh165QmJQuu0tQVU9Q+o250fYmiLM1B0RbL3eF2LVjrabg9y9LTkTwJ4s//jEfgQmAqPesoBV3LQfvy2fS29iKTRD5Add0VPOHGAn/t18lhnfiIDro/sWugUnMO10rZraeuL51p6l/Xp2Gg6IxYkDMmzsKjNVOuNJTUrYFYNsiS8C5FK0YAYeH+eDYxSvjOqq0j9dPq5ThxcP+TyKEeI+0pNMbwVDj6xwrCnW92jizfUw+WdZB/O1pLubBizdrC+uyl8xW67uQydjgNMljlOff2F5eO2VgimP9o/uC95P7SYX57aipjHMW+4rrOifCNX9rpvCIt4sw6IfpxVgw5lrVs6UviNPk6G1pUjPiUfUt2ozXuEx2/Qmqc6yVQyMigMhv4bndhzzl140gcXL5Lyi6LEWaqGIi4sg/im7dVSqG4XxewkxAiI5OWtL5i8Q8Jo6t2M4saUiQwJ+LR/Ds04HIyuxY2tvIJfCf/vmcTsW92n893FYy0E0iO4rykAp3MTIciRxTialZvIwfxsxXQtJqkjCkw+2IWPWd56imEy7R9yvuq1B790Yyakdvud/VpA71O/i1bi45yB7N6YoM3k7dlDFTpnRGnpwl08cfnrKnfHxMiy7ufGTNJ2qhE/24e+wpuMbyUsaFj/nmDQfUfewsfd+TfQL6sxorWnCfDekG/5JU1t91V897JalB7g7InyBgiuiLfCTwsG5TdeOuG4y2jQ8aBAaSA+wNgbqpgex39KYsztBJGXKxn32RU1cL1fxPlLSN7Sv9nZVBLkFaT/NPta0vItu9tGrTKuymPBnQbY9auJcXTeo8yEjyPne0NiTgTAWsYd9xHLbGbwn0btCef2el1heHYzcZyqXag3wWkKOcfB76I9WIY4PDOX+o9MWg4DDGG6mJLW1bWsAvlWlu/TSo3w4/TxYyPRkPaf6U2/hPPwrOCLQPJtHttw8Lkoh/IA5JxxKgFYia7tKZblvm28SeQAzToQpMdCcPcOs1wJI0TIYbTz+iwq5X6LM87SAAC7hAz/SirvaZRoRmV5qro0us5TMBzcTn+7O+mh/MuAV34mquGtNDxGqaCXi02+YGKpbdTNAf7ucIi/xxHoQm8gGNrrqAOkCL4j10cLcyCpxdwdyoThJK9K2HuAeI0eZsfartXAMROu2EhKmkmg8O+pz/5JXoSZATCqBiBbLNURlK177bXE6bje4tjWSeT2qKJbZBRCVoLVhinaKY2/inTfQ2nFsq+Zy1ewCR3rvsa9V0qsM7xy62I9XzEmuPgtnUZLW4eQVaHCZ0RBwWyYC+Qzxcxx+5+Wwn4gdqZpH3IUU1wgZBMK94QtHKVznc/pIwWZIoCrxBAQfLLET29MuAYrmc6NkAF0lm1W+Ek5glv5PBzPHDNF2fq7jpGguneXthrvxl+tMvjHcMvytb0lnDtBzYfFa+e2BtF8pLnm/5io2otfN57CpNjO/KLCk5v170zQ2gxjh/zNlKZENtMRnPng8C1n8eF8CyA4tpUH5nrehTsnI6/yxNtcsxSoMz1kMXmnvOFCH8ADPu2RHXBqWFVx4Q1loE97PaHfFFZevI5i2y5iZaqrADXYG4HXWNeQHqDhMaTRDsVRXGpCC6F41JiZPpwjAPHfYhMSwKkm3bREL2PmuuneBN893ghVsB3N46kxjs7s2d2DnvjYo0CfJgBBGcjm8p97sGEhlABsl90NkBG+K7af8XOllLmkqgxdUV6m1VfGfhVRgWTSvEd+HOgL1caoVGdISTm3mTQ7q3H1PM2df4Q/UG1kn4LxczFRB+RTY4AyNXEaNhMh5xbaeTiv62H5iVkxr5Rl8RAt2UGZQYBoDTPgBYXyCWR1JJzpvaoykSzKo3XWReJqbwUZ+p3rZdPR6fIwNZwGcMmXJ3niM6FvWdKLeWDfy6qsTwkpv2NO1IWXQtOC7GtwW7yQfqTgQovU/yM6yB2SPKuCjsC2D47GzDaSEQQpBMyjhCEWO5PnHvCzE9X7wuKk3IxXpm2zUofgfN/zvmjQ8aBAeCA+wNgapmgz3LFAxfb+gB+C1ZEGf4CorgxiNiYStanoITXNynU7i3CEArqUZaajdeU8pgJOpBIHRUlmYN5MmU9NlIMFyafeuypAMgbUMEx2Smm8XDKeYRw4UcSchQ4E3EiMQlz/LEIoCvdKamCo7J/FeZEBc4oAT5vLPgdGaeRGG+Rtiz0SKLIAltuw+4/jiel9jSvJtC6z7v1KH+CtyCUWn4LkYqd817Kw2IJsSkqrSZLpXyE1+d9HwSCwQ+vCQSgCsJClxARgiEQ2v9aCUl9iAKxAmvY3P0r9y7N/gdYtwsaaiLWry+AonRsqqQZQFiyZd8ffVXc3zfCn4EmR70BCS5SdoNDj83HrHwnlYTYTvfOqalFjzwEHZ5/MQ1/qAoeLl47qaEDOZQzaqBDHHneHQqZIuyNb9OCbgoKkfi9gwrVyGBrH/p4F/30U9Z8P5kVZ1mjHxTfiI0D4BaZ2jFhQHV6hl6wPHmeuM3sgrw8vuZEYWhxfCA7tLd7uaIesIc/NPLzkAKHOTmcH9LQxuV1yaNUQb6n60X5KqG/bZdSpfXrgIUYWTT3P6tZ0t7fHiwmEvcyptorGmc0kmyDuUyDj8080KmRqI7WXipes1bNz560/bG1Ov7WYmT6jg98GAYx5e3CNhP4eg65StZA/fpPgsqKcmKVBV8WSIoMk0Ciovun6kd3/VY33pk5rJ5dYk2o4hwx82RSJ1vZWF1ePh4Gl2GSbUpE4MDHBBfLJzYkz/XP8nDGbCfPc1Dk3HdEi1xSCCtxbQKkNYITgf5uUxcTsyb7y38Wb4b9wC6ljmHUM58zs1pm3vhJN5WX2vzhQqWpZV4WbPamLLNBLz2JmMUNogE1YG4jZeHEygC16G4DW15BsqUPYbzbEAxmZIKEmorURF1oi2B3Ok1GQ+NGz8quB103TC+e3S3p/JyYsde8POfsh43SnLYFG49vUAX8NFLuk1OpzvXr4+Q8iV32Wt3NORNPgtmQQJq4fvmGZ8GsiYvMiSVzaxl/XCxWNvYpEVMBlqZkAly7qr40eefHprgkkf3foy2OhGfxtmw5Jt7QumhjtWu0mPmUxLn4B7Jm174qJEJ6IMdbC0KxGUnFfGNJcZvHqoB0AH5QpINKG/ebd9BufdtH1qGMpXK/Y+RdGWFFUK8Gf+0Lycpr5lz0kJb2rBZ04e+dq64dQQanihIp79TUNjnLOmGqyU3HuQBk6vGkDXRVmLANRwVWC+0o4ZdlC5vLRK68ZWPW4utEVmitWLX/DDsyUnc9QM4aGYff1/AWkSijQ8aBAhyA+wNhIq026t4t3QoiyreLx4MHOMb/viJdUv2+3QrrA6Oyz+dGrnmt5S1F0QvPw5hldziQ7EoQC1yCEVRF2zefFMpf9R4p5TBZy1mZm93xbQxLwLxVKoYP4NdUoNzr/IRG6XlK2jk12+/0BKc+Yt95AY6D26KWs0bAeMq7WZO60/n2NUYwykpWhaxzD/7QtV3PCFWiDPv1Bm+/LXfkZxbiQI3eP1r8AcP4P3uXS96u36qTR1QUCJ7wk2PiHI9NMJG5RkB/1v8z3xWgrckt1CQIvdQEWnSZtYsrNFYKHOVOnmO4LEJF8BmqIGGEzsIliDH3/2uogMiieUGG4y4mUZ3fwZfLehIQEk3OgXGtcs9Z2pKz80+MYL9lPpFuu6jfl5yfl0lZUt7DlvtetRoxc3n5KsPrcL086U22SZf/VPdiba5oO2EGNqCIVweSXMliZT0h2BILaQxsc94IwDHijuaEUHFRzCxeOlQ/pc7kiwoua/5/eL3sbl9hb7KDsIONoY1F3ZBWLMbY+xfxNe+qD+ppj4wgO2Hpw22EgrSfw9PfZBui/YgL30waw+CYbVWhPAxa7bTcw+SZ9vAPGeZcRCCsOYVFufyy36PHr2TJUJC182jZEzeD5TyQyV0LgFmUXb2z/dMrl37NF4AOkjvKEyfpmMuBLcLijF5XSNveSuLCOz8o6E4dONQ9UmIJQtoxO9th1wac9IlmDJ8tKk1AZeLblCkIlsGuLtwpzk1pBaVRaCvnujlniuj5Y2wlB2mTu7+kgVcIj/wVbNE+Y209F2XsMo9oLYnePVVL/ibftX5Qp0e9RxbHM65+fYjqkrSBOHXkTkIut5T8tYommg5oM4FSHqEXYRuBVfoulnejPbP6O2WRrS+SBQRkXGMbfS4N32x5NS1c8gpUzXJsRjX+Syx/1CO2WlTAYcoJy6WloPMqGiXrJbuyr09Mx2qpUK8xuvyJK3NwM4GkB1QCemusqWyZdt1q6n2BfILtYqKXIs/ktb0U+R2OU59BKYzHH0DMEE2WayVfH0Sk33HjynGDIahVHhKprRd3H/aizE55Zqr6HTvoHMpUuoNW34PNVE7NxGM5Mw0FAvoYrVmQBbvWuOSDopWlKsGRY0mXJ6TUpOk845AhFy1ntRtxg5qrOEk2tcXAIwgPJ3tAW+llmSGh5g8CcGkUjN6pYIkUePkP2d89eP09e17jvHJauHmrZCC9fe/bKkxb6jDcM/wRxQAFttkdi48tc/8oAag8YRQe52PZAoPKSjD9PR6wOtSaTctFr9UoZ66jQ8aBAliA+wNgP8juBgPEHUOY66Ma3nwZoDK/+ztbMi1zTui234WECi70AtRrpeoBMne5/xZN97USR++/CGdd/t5jEAZmETT9Bt0rVbT3gQzXX6t4geVy5gR2DYSf0Lse/pbvgemXUm3VTFP9WnNMGrbgyysPgH6i9gXlzQfyc/qeWHzUGaVewkSoj4fFgh2rlqwHgVSPpXydo6emQlbVRsn2GchzdyYMlblG1Aa1wmR8iR3m58LxWilBJA3fwAl2VT4uOM5o/T96+yIE2Ny3LnunsfF9uAoGHp5H/BT8I2mYHakMtUZFspinFChedJrf3UnxaAN7vfmNSOppvPDi7M+bSQhLu/eez5JSlZ184U5xIkSAjfV9303ljFV6BCsI1RmLeu0dzU80yNzMgZnur5U9jkQKYeAMzGJoTvicKZwutH3S5HrQWWBu/6rJruR0THDnEDt87yuOukwLPCf0FQ5S8IGMg4cGigir0zbRUwH4kcptPMrXCrehhyPBttP67zThE0kmEWw4piiXfflLJxDky1rJWsZ0BQ4ZyrQkvk9mOc81rxIPwYRX6720avbHgg+QSbd8BeBi6luV9pW9eEXTWlf3tUio72b5uFYBg/pNX46DHbMOMOBOa3OEJLVHzPyo97RkceT7K559Y1HINWBk5H/egwgqDoW0KUOKrylviOTMYTHu63AYfLPeOkQ8BbYAScJuPJCp1Vl5Kc6RDQD8N/4afc/Few631OdGDEli9OlgUbyRcgTrHfvVaIMxtZj+v6lMe2XwvgZXgz2lS1rBzqmIQJwMSAzGlHJc/pZE7bVEGPFuN5gOnpBHa9Q1NK/3Oqp1Wc01In3YzkoFGghoWSTlHVLTYGmKR+6Mtx6bHg5A44H+lgQ0i5gd+Gw6AEvcOBBVs9cjwkd3aElYU5Oi0YRPBFfWQvTZ+Yk6pLH0OjCOB2JTpWNSVyV6HoByTSJQIgM/3Ra0UZuwWT5ZWYj+bhW/F0/zcArWO0WBu2ViFmfcg+A4dqqEFn3w1x2Yz29u9n/ocfn6cQB8hCU/dwBnvEVTKmhO/37XkbUiXPDWUByB1qcysfHC+j9RyiBQAHeT+SyZuHgVtaT7vTW75+1EuWAfDdd0IGI7LyxabHjhbBzRGyLmLaynd+0AMsqvCIxfQ2+j2QIwrMr/q5i9+Qs0t/mmGk1TBtXhdpGRtIVOTYlkmw+tdnedr81oh8jCC1F7moyR832g1QQzVyMCf6s3nzzy3tXFKwq4kuhnzZENdjrMWvw6e6BGP6d1vKcaG6qHHXAYbC2jQ8aBApSA+wNgOyNrJj12JUSI8FutGeQ0yidwTgrdewiKoNvbMK3VW+sNcu2/ZyjjcS94Pt3njDR7PPiyh7g0Y2y5hX7G/iiPHpiTcCQovl9hAEvjzzxm6uyMTRMMwVGkqGdzKJLQI6pAJsVWmzZM2BAz6GPTxCeVS4cDR1MiAxfClf3SN4l/J3vnfW1heFrz33zKHsPD9UNsUmoVwSXGs6pk6I0vCRdgwwkxxLrFoWIDtRo1r4DPv6h3YJGfTctQEP1FBvmI2g1YpASfzHpdyxgeD9es2lccbBrG8IECRZI1YhVFwjyMxySB6CuDqjeJds5obd6HEhGHb0Yu+OZ77HiWl/+TiLFtHlDzi80irbS+ITnMRdYPSZk5S+On3yawZKZj5tS1gDoONkqN0WwLwGp9TimfPt+fk/CHZzdTWwodZH3Fn/1f12AuN2t6c6GUb3XhEiT0EFrUvUbxljQ8lc8ogcO2dwH4FkJ1oqR5lQhvTw+3LryqUgIViS0o3JYVLoxa9v+iU8WTSgzCqtCsgoa9nK4y7mNxTcEdEV3XwjYLtqSlJ30AJmUeymseqRcRpLSuHTT+WmaUAidkl/pnr4PALtO0K51NFv3shgIS8eY/WgETRMd6/ZLoKeScWFfz1huY+UbCEjZTjAF0Tj+Y+POyBnzEu3fn8iC+fwTYm7SCgMjLZ2xE+2P/2eN3/DCWtPIm7k8OJNzpaEvFNubgoteV+simasdTfw783hcepLwxlTx1ISuDEtgDEd8duuLQh3M8VaVOqzbzn+YmTTrb6UoAdcNUhErtedM/OJGF3PJFiTQ241iMGg33cD6WGsmvJG9WU5GTnGShLA5bVnb0LwqW33RSxVKwYP/qUM7utDROcjly/3IXf5Nn5sRtofh7YG46BrYNk+FAlbXoufRQ8QUB4V1eZfhWR9/AU29/OtfFfnLqy7oUY/XfLFGjbUNvXBa/amL8OEZ8oK4qCoF+HXu8rfTYAw6dU6YJTzYAbQNF39GjIZU3obzLKPxW9dHkBGxu0zZaQxs5aEfSaoyoX3wkyJBhAS+VJBfv2qzfaQDxwccX61qaL5JUmCPz0xxZZcVxwg+TRMYt9goEeB3p8lCud3YG35i8vBzt35/Ga+zqYGp8huxIq/asM5+gDXC3C7Pi4oYAB33fFwzJNwQys+p2xZYdqVUdg5Jad2c5S44xxmb7GKFBgsi6vgaNsmv1TUyaAp9kdVMHohJeHJ2xyEDnAYGyuS4bGsObvKgXIidwFMSm732jrn33tc8y+DOE/ldc9lB9ZyyjQ8aBAtCA+wNhG4PSsA7Z/UBXeZ09BzEdpCy8IAu2ahFfb0bK5f9DsAfs097jihzwYjFQueSGwMWurxlHvgKCiECl0Zlu5jGsfECqIaFsb6UAoug6LvWtFVBHkARbRHrpm9YuV99ZbluNg3B2iEAzo7olaPh50RSsLFW/IVY1vbVuBRsrR+T6RvmtCmGzfWjC98bJ0ZGFB47UH5NihJvtyeGeQYEar+TNp5SIlshs/5roy8aTbqu7bK3QVsQXqKvsXl/uPhWOEymSONfi8svqcvTItO5wyW+oQnCvOuWAjHHdPEBX6XEhui7ayqpEKxPLK2+TCakvH2oKBclGOqCqTlE8mFkOL1eZ4W07QjmkU+OJtiuOYOadk3qIeDxU1YyDLDAnfiua6Y/hQF8FOSUOwbi58uJyFsnFxjH0XsutRKxdl1Jcwf0J72ENLgvbdmniotQLOmFid2Xl9que/WfZn6Fw/e06TlJT293H42e8wihbOIsMdsYDADl0ibXxEnD9U3oi3MD6+l9jB8mIU+39GPWBa2a4wsvQ6WrX+k03a8hXx81Aex5rhQ79XoI7jFAZ4VgBMRVJJUgn7Ru2+8jS5gznmEUWf0Pt9Z0BEkZi9GqEFFFuxCskhLlXVtDcj7epupVNVpVydTy9Az7wu5wzOCAZHcR5Ijae1EmLB1BJ0RerMHNv1kqLSvbAG9kxNyg1LlKYY4Muu+Ufd/GoQOUuPvdqpbo0wUwSPIq/OiXz2VAbxY8NgNy53WzddaP0GHyVler1Mo0NemzWtxzLoX+AUu/vh3EaPSDTAAVhAWa1oDWXG2/yJeBM+49wypABkxSA5CSq3kELoL66BtfhgINCKR6YTqPfPrXGYSEgGGURr9G+R9nTMHSG29fGXGiw6Gt9K/EU7HpmlT6zksOSAp3XFmrffDATeNBOq34QN8ryNiYDv34jLglrotXDk/9UU3aZ0A+deeVo1kens2Oro5U0Bpeb/pIKlG6Q9YFTJxkwmcJWhE5Xw5I7NJCgPDk7yUH26Bc9cqFIet0R9LI9HmfNT6YbBOZJdFpw9TfV6znhon/QFUAeJFkEZXEdjAl0PIEwjKQxwo1fBfo7O0No23v956NEAWwZxbouAHr18DuzjkiAKwo0LPzWAWrGcajV4AmDERiA9/uzyf6O1/JvUPwlq1LmXVXRbNGqyMO1V66oGC46+ceA/m2vnQPLClyYmlyq7Y2VWtoH4tFSAXACqNzlGI50e7uZEWh1NfuNw6UTc/mVTdXdbjv3usM+d11I7u3z9Gv6aPtEDq+jQ8aBAwuA+wNgL9H2elDOEWT+REU0NzqnGo2JiGo7RFFUjsj8Q2Xh9j6akPbZjkP4gLcLQpz3ffrNtIu8jkC31EloSRBXuXSJ1J4HuBokI53KuVl+xH2xOzufIULA8yf/mBbxtU/EMi3motxMEcn69cyYls2FLQXbA26tKYyRbwwr93Mjb3aPVS/BPdMLpz7IkUR9VaawnXuRxBqpkuy7bKIJnot94tjva/Lc2eyUvpjxoDcNTgZN0EJMxnWcFVW9/N6mfMxISjNXJ4X60fee4YCgZ2LNter0MQ1gI9EEdIP+aO6Cq/vJAytd5H25XgNTdxFiM1zqYMo4j6hwU4CtwRgi2VDoJHrl6URhwveDl/5xA6tkOlpBhmqo25l56QeYnpjV+pIvoqAlZyI1vUdGBmOEXrW6955H9CA3fRttWxsMaqrU61PKoGEA7LUDKcSjPgfzLHNz155C+ke1BLRZ7W0KX9maZPTjJUepg7f+d5fsPTkAX3hiDdVeJKmJ1YpDqzySF8PEWpJ3FbIh0DE6seE7qNdnj8gNeT1Yp2J3k1nftjcMGTYDZkFjEuAGeVvuoUQyF9DvUDZvqQPgJ0oPU27PI+JHSOsXF3j2tp32wBuWQJBneFHAxxZwkGyFyTWBHPop+8xh989i27eJJxKBNfVUBCAMiKsiQIXNW8WEZnvuUsEYt2G2yWVbZxmvE/RbigR8MWPgSexIfmbZ6vfugnkHT4DhOY3qrZIoyQehNjm0V3pIjnX+1t7JYC53ZgHhaAAICWwJvkqwfSgMJC2/OHj9MO+zvSoHmwvcEUfCOZe+qeVah54Mn4y8oxETnorfWeWpzYy6R9jMjd6wukeJmz/VQpiPWzzlb485Nb9siVMrByyvdieKSkDkO0q0J7+/WW0V4wqGoT9LUt4QadpxcDoAwmfVKzIK4LRChaYBd5IOvdZb/tcHvdc1sPeIQXHG2hHZ25RHnOg9EfDBwC55sb0W+fY6LQxBISXM63aDjc5orOoUKI+KyY5IZh3tqk3vvFFi035xQQuvRT2Lz4v/5LYG/XTCUoEI7ZAL1CR0wWe45rnT3XyYtjXfQ5Y10EOsu7fc2S1LFd9/fckHyB7qNxkfaTIffASYZkysAjTnP5J2/JtuZKUMKO5vaDMbWcOoSvdxv+dWS5tDKClkrOD7DaA2UgOF32WZmdzyNDYnnIzmuuK4xlRI9jL8j8SUertY8nik3c5eGg/TzI+iepFavU3nK+suRlW4P8v62fF0IjfwS7h+opx+4Cry+HpWHQo0Sj1AZZvN+gCjQ8aBA0iA+wNgbcDfLREaQWhti43/tp7drwJ1KMo1dJ3/Ts2spBHaXodYG9GqXaMXxc3xzvK37Ixhpcd5lkjdN/oNYCkSsTZjcQOyfIKQ41qmPm+4CVzUoNllqauI+VoT3IV2IYXVZndiTjxRi4fAPoLESgEN+svo9pdsrXl9xVAuVwyjLB85L7BWuaUmvaU5eAH46nMh0NgzhHy0u+3pz/D4HkR5MfoYtI9p20vKYW85E+4Sv6Fo3Yyx6NOrH3XE3Tpo38CbeEp2q3xR8oanG2MxSdLMhz082y0OpiWr8kLMpBTvFH48XiBWLVOLk3Q6xu3Q9750yxdFL+qIIUYKOGWLfcn5/6tjwn+6SHDxDSK3j1Bz81wMVObRHX/vtdreL+bVWyNrwJIs06X+o7g4HAyxQzonZgPmSAHA/WBVvQw/q3llQHrtEGEga3mvBJ71iQ2ScYG4yCA/rIZbW+c+c6EJPbNT8ILTKw8dANjmTvqP/OcF/A/u2dYHBhxgk0dI03pdaLTJrAc4+CLUerBePPGddjQvzhjgoYwqFKR3f4cFeop/jGM7yU7bJ+aY9WNAM//ryVXcwEciBdaigSI3JrEZe89v9GMOs81xo4p82LuW3NSggXFvKEVL0BF2QlcjL76zcO99qYEYgKgjjo0yTm/nUnztqyUi14Qetqay6Y4e5lLTEUDII2irqpeW+KYYJfeDeLeEma4EPrWxY+Yu3HoKWOfWUw9Mxi6IpRVL9bkcIWhshxQW04zKDxRxKV2a1kExrlXHvUEtW1cs2P3TNBqAYOC8ESgXPx6Y52DYk2AfBdIgKGVXwNSgKjcelIe7QFDJxwZGhOSq0thXlv9JKim2Dtx2EeevYGsWlRRWPY8Czw3GjHO/k4UU+brPOPRueMOUlaWk2+dQgK1uvrMUeBVnA6VRoQFtU3Yxi+yF00TSA0pC/mtmsj9Gl7ElugI3MqazAsrG4q+uM8x676kDBrn+K5KR++gbQQ7HIBBJ9L3txIW6Q3OiPf+nwvILPj2+CDPe1v6nICAnl3evcD6KRm/u4ZOKC/ZiEDPR57gRmBZujtZbLhAz/XkhuF62eevvbU96Uu69T5YK5Lba86w5S+KsBpMzLJN4W2DOKlcHfpH/fbzFuX5fCU27tDYSQBalvc4yz2EUkUTs0AgSKGsACwOC0DJWyzW/uWCblVZEt4VuKyIBQDVQuqlRDtdNrWeqk0bAQbQQmXzNQsdbF2fR6TVrIgCN8XpkYc+G4livTtamKgeivjRis+RLnZEN0wErPOZLsmsCkaKjQ8aBA4SA+wNgay2Sk/vGZMawc9BM6cfaGAjRPTmnbkWolfvegu8HvLh0S/+BHqe6s/eFH0t7ljOqLEko33MREhxJatFKq0pOPDjz/z2bj780/UMJswqXadEK2SraPi31GRyfFXE28immTYRdl8zsykZ0oYZO0WyHw1qZKdBWV8powfNXogO4nZJUQxwbDBgBcMV5NxnaX8uXV3lN+z3jSArr0th/NKzNTONQOO2EXllgWcNQpvJwaS67vKwlWC/MU5b87PDmvs+ohAfsnPbTZEiNAsD1HanDgLMLIHrfI/dxL0QJ6sKzKsEv2znNcnmYokYHLh1TTamMN7gKuPqK1Be9ky/MDk/cDaS1yMA2FNQqg2BRtT2jKzUVg7oEFG5NbW74cqYDWY53yIgPyXWCMmcpQLytXa0bDMMRNtxvqpfceV4yekem8WA2QfaQWa3EAipG7higW6x9fKATvt8vtAP99QKOhM9RnXL3wFPauQmtcL+mHUwb1KljKcgaDTjl90n9M2nyGphndiEad7RHfLy8zQDKVcfGIz/uBxco5rr51aQYz8kPiUFHAWqCXo8fT1/8g2USyWNVj5fRK2Xe3Y1MWI5erj6r4z4kHPcvH/vyFtMLbf7Awwizy3zBR87fpYZQicCAuQpOdAEbv6Dt79TUggqhJEpNNvfpkj7AVEwmiy9eVwLYFmyvWvbO3nQZwiC+pX2BOprjefJcbt1fnYX9/nj3wLKIFJEMnuYvvwyjGxhNMOJoRNAaGHDi3UkdgJGuJbhw5jLEdRvQtFQnZz3Mvhk82wMMvLj21y38OGTg/ZBRMnge2EyTqf45PDeF489Q2WTVIJL4ef9jfL/DrD40ouiWP8EaYD8c3dev0zuEcWitfCO6t8yPvLoM7M+Qasd/Gq8QRltCYPlr4IO9KgqU7PnFyCu7msQ6LXkJOFwYMj6U0gnT0SMboAG17EqlnckM9eNOu99/HfmN+0sU+z/pJsUyh2gNtQs73rW0KNXIz+4nTDHE4mmAi52Xzyg59frOQfIEN1WIPr/lNPkwy83eYv3Lp318FH7C7ElxWi4/wYhnf8So6VaoFPmUZQN0wu/uNhtw1OvGkEC9HuJUSZofl/Jl65M1A49KMNJlUd5r14rJaf9YewFttrhNdsoVz2/J2r4pmPGeLdjESgyssj2qQhfIWrZ7F6/vKYdWsiv/eU9wDInpURS3dnlsrRXTVTAdx7r7IzBL3gwnYZJyjEHjaw5GOZBZXKNzInuMrCFsjpbGKgN3x6ErenhiK0sZy4L+z+SeFuOjQ8aBA8CA+wNgLRUjvPqpPFmQEPFgjYdXo3SqSy3rDq0VK+7ifq+zypUrO1N4cNrY1RQ0TFkmbxlMfs2lcMUIkj7XlZn0AmSsuMwvPDLyLH+LOz64FtsqTZpwqFhlVTH2Qw8Ontv7ol/AkB6VWJsnKcmCJBnS5u6epLPfixMrP8awVH497WUmEeWPRLxDX/i2U2/f0pGUZlvKrSIVqOGoCzCi0iDjE43w25teAyh9ii+pTcz1ZCreY5dc8MTqLJTCzMwH3+91Dq36ZNu32bjIKhko6AuXFtkUh57EVxdhb61va+bcHo+CtOcC4n/XfwjRbwFyyLtzbBuCx/WWED9ajW9M1LlEKDxRX93u8N3JAh6Un0adkgyNMJjJtTDj/m98uJC6eg1ofqKxU5tLLlmhrk4WyhSsCx3yT9T5AorSTptMffeDggL5WWEiNDJdQnAGaVQoBXwDdceSMTNSpAvT/UQXyS6rTtrcQ7Yr5WHCLe2rTxeLXMktB6gsuqeWsO9jyCjF5sbcXWTPitrroKf4gWfpLULQ3cTSs8cl/bqJYo3mpiQnJiHFdYpnuLtUa/XX5Yv1RrOl/Rj9862eekY7a4uSB0Bfrj/F3Xvcsnz2yt7RODVsrF2GegDWQulaW4PvGpGiSagBSvMcANXIkw2MmE65iIt9lDKDjiN17wiQfjdaq2I8OoszYTyV/Z/Nc2hF3b6qEyDYeLpCOLzpJij3NDzxIHpBlfowMc69Np/ZjixWmZprISBivurzL/ae8VuOx6t+S2+Kxm99BDO10ftOBhYbBnkT0jzsdQoo3bgOrW7c4YqYNY5kB7zdfy2I+EFzf/I7E9L/7D03IlzFyHbsnAmWpj0CUoI7YQEPgUsFTfrDIgASZh2LveaEM7PJja3c+13ZQfddpGaJ9RlNsjmuoMdXF8lRjAx94i6UqrNKbsF3qyzGASL+V26Z5FcdhoFTALrhUFbA4h6WNdsyZ4rIJFqCLu4j6M52tHEzxntfAif9423Pu3PR2CHmVJ3D/g9c8vpDbooWHspmb1bdy81PS1xL3TTYDR8LzCWgIBgHDT1yB8ibsizjT6zfVA/j+nHhXeUGJDpyiKG30qD34A0ynlhjtNgGOczNduyWZxX8BFFYMD0ww8Sd5F+U1pWL5k5a2R7chSBA7IWmnyhwg+02ucUvrQuxXxmDI4dZnkHQF6kFAu0XFfQzfZIyOJIClZtnGdgDsD5dSvXrF3nHeV0RqJTVLoj/MrO0k1Og/46+BesE5wbSU8abiM51sZCiybuqTUpCWCQc9hKjQ8aBA/yA+wNgPjOv9b5aKqYj86gQWSN8mtOkRaWTMlFZopudRkSYawu3btWF++lY3XZdCR1w5wdX5bzd+nqY55Zagd7zvOG3LeOhiGUMr48tXsK0qwsbviahsx+uMfoBceB2qgTQFujwkYGtn1Llz06q+1LORuYW6pdl7TjdtfLX9xI1RpbMTZR1ALzyzE/+DVI0N+KG+gNCkJIJFczJIjsQF5qsDOWTedP7iTaTlLQl30wGd8dlKBAindR0MMGLpmIoA0OAjihLCf8r6RXs06vDZZi2aquUn+swNLD2TY4tLx2h6ROpzcGshHxn+TsVo3YBncqDEJ7LN+IPAFVX0CKaLSBkQ4Tp01PwpJDUmDOTpAGfmYGkL62T40UdxvmJAEXzDUMbbEe3fwKyH+Rs5momNRMlZKX4gdzJSEmI330eyzrBsaxF117FB9Z7rwCkR7Qcn4sAu16ji+uuua9YpwdC3/xvBdYs1pzLeL1WiZYqHvskSFhHH5DfGUbaBxUyra8AboZo7eYOEtN79V9qbNN3eWcCaUJkOEbuPE/CidB5eT1sO9sS7NVgCh5Bna+GvaiZn5aftpJHjSEFS/VOaYCXYa0v0TvTyfjSLCzjSIQeifLOTzwgfoZ7xe1FJtXsKPzCdaQ8kesy+v7Tj3AN8Okr0kHOFkF0W05IgmRlYfypQIpAlPPxbED2JiZ44ul0+CBvnpBLEAYvEXXD6fOgYNb/u4u1kgEtApZI4I+kJYINqgUK6VCXMa4eZmFY/5+btvKx+KgIogyTjmw9uYXfi68Db8FZWamzQmHqdqZNvs7dDCqJ4fagBGsRM2ruuCRRKq4SRWPjo/Q86sID+l1IKix0rQ0mOmeIYQ1nhGZDFFLtl7sqfLUkS1MtZXsTFZI7Ggm1v5fl+1a6NeKaBXApLAxOcyN6lu0zu0kODIGLHqHlweiI3uJgD+MjcwrZX+XjJ9jnedZi86MKU1lNGrt85xHX8+i/8IZCWHhUWxCLCfWkhK8H8sr0BCSNl++u8JVRBnvGzVxmJSBss/BnBFb4y89iWdujKH+qGuduaQIIosYi0+qc6WfwfLCUTxmBSTAgCz8myLvuuzf0gqhwW0c0ygG12k/q76T6AbX49uC9kSDuA3idz9QtGt5npkWCstt3R4eydxlZCEWLDFjlEtl1UdtpdComwnshUZf02+PEzTUc20Arw65pwPz+5ZEkrWGuICeJ42Qc44lkyUWuBr7EwRQzAmtp7Jl0QrYt+kEjXYJpqKnUyCP8MHtQBImsfMgZPalFMZ42Y8ejQ8aBBDiA+wNhIONlxfPf9epgVCaxwwF0JgGb2bpvHi2D8G7adekZBK9TnV1CinIEcnBcavfJ1mmq7aGilcNS+NM4IaSLdWbV3BWCGvDLCRn/2UZX1Rzs+SuPMS1GfTyB3HWKwaD1uVvH3BBPG7jK02MQyQ8y/pNZ123IVzwnxrL5z1+YKvka5rg3/uNDG2s6E9WfLRE3dI/0/fOKAvz2PQMZDw1hu6dwWrxzhqVg6EYejtbUbPecQ/if/gA4nH8mqKcHi/tSrgUxAL606ME8kXhvyM2iWbKt4w1+Hu3LEuQ6X9jcYLeSZcxBJL5G61DHlslKYrwFgCrT+rcQpd3yEVI2VDhIRQwbahFflZ7W2nLQlBCXtzcAGF/BiKuPMvBYjKBKr3OwbEnMRn4nuFya39KAW5jdCJeuTXPtLHrh45wqfE1IX4FNNWAH8q1+rqkgHFOZnihW2Z26utngnzlTxbmhOBSqnMUiRe5VVV+tg9RAEwVklr20CFeJVrizzsK98WqdV86SUW1evzgzcoKbR/QB0xW1lLWLRkaGL3H7xXgXhUzKNC7UH8Pv+PyrG1Qkn1RVVfKq5InOZ5PXPID/E4vKgc+PXVqgdhuKY/U7oaizfeI4mKLDsFzm/btGkLPAAam2NUpDuvNcvMoOMLjz6mZ7SlJ6yOorDJRoyfdlNNzQUNIPV7u61E5Ebha/S3NG+fkR/s/bBIDoUJD7995h4flpR/MYlGhkre3zVmFOc/7r13bb+5gxTyoO/KqUfk6GQb3ORtwUmWH5MCYz2n9cAy7LMTVCi1ANHNA6JfpeUYZjYLGQd2A6iNrO/XwHwrzpHthVqkiyJ6mnHitZsPcSChiDqcqWwRoKYC0x/O3J4bUXRGCjuvbDoQA58fhfZwBxmARlcBK8bDOZYq0vNmOXu7xpNlNgfezZ/n6F70O5YzbeFS6Pb3XRit77wXsFeaqPyxqIEjRzLjIMG9n7GolOP18M4HDcvpKO7UebFsZ1jeO4ofNcEbJVQyqGroIvVA2zR6Cp1/OEkzhFlScMufmMm+KwQqdeXAKbhzqxA2sXBUIWoUp8HEI1+G1btDScNMckBf3Xxv33KkKnuCjPWxRdXYL7/yqVaTg0FD8EXJrN5oFTIajuJFiFgCUlCv4X/gdFkydFnUqSPMJpJrwNEmZqBYdJpNhODtATXwXXNEqSnvFGrRhGOxTZiwhkaEvPvnUq0kPl5+3v2LwVpUVQAc/91qJ+58ehGOqJSD0Wn3t3up5ajwgyE/8hhCBt0iDQd5C6HoW3ikXiLYujQ8aBBHSA+wNhApJdYvhNHQxCWMoDcgvBqwugWN72EHjuM/ZvbR3YwHpww1KkvRhTD4e1ImZufbEzvlqxn+9jyE1impGf3SFTPoa9gJeMQ3ScnAiGMbGFfe+YnzV0rzyXKFErUc4RryesMIGC0nzQ7Z824EmqCZdkv0KCL7OjlqHpHxiO3X3i3teqLWSRuViW3IAf9JGI1pMNLMVLx4jykGsiN4I6dluQxp3HB8NgbiMkG6EqjLpZtCYEwnjT9/dtJYVBS6Wy6pV9u8Gamz6XCjY7vhjOSs264nfLYxVT2hmeLQSSX45CYR1TkhvsPW7TxO6vFrpJiRng+8ycJHs6jRe3cRm1NHWs6nr9pZHWxGofcM0RJEeetbwSo8csxS537UuBmcYKkiv5JW9pXDqMtXGR13fkvray7uhnIr0ba5xQeDwxOwmQGmBrhoEijyMHFllr+q0c6oMsu4qj/yeNyuOMjS1Ju+knI7Cf5+UnFB5bWWh3xM43X4TQkwqxVXgW24gcsi8omoGgT6yyg2MWM/zPQbmP9K9bGiBfkwhuc0SYYVgtsNDgIqUCHXqGIhNP/glCA2sS42gCTW4mQ2283hqIn4eAktsDjgcJkNFS8IrNJaFJ18cZ5Lu49BrC2r60PjJDLaUX+auho+dFFaQLBq8SyCQ8RCUsd0OuBirtPYc6qKAmp0Tg3nriDGF+wIQsP5m3D/0u+v/MJ4w5V78O7h0k2jNW8TYb394R+hqTxlpvFqlv7SxocvcyiYB1vQzYgCWDYf3qkDg8ncFJ+R7gO7dQdnfUDe8OyylPCB+McC0pNAtt1AgLwbLBIUI9tsJORJrgFG3PH/GbB9nz6i8cmhyznBECFIG+YDu80cGj/xauXp2aS8O27TtNKaXqF06StcGgkM3MpsawROaE/HRMjQJu1Fo0KCyRE2Dokt7PztxmBEVWqDG/cxsz16vEU6XJvsiK0EdXo6cj6/k4+ErcMt/DZ8OW9UwCpFowIsBhLr42rGnpSR3KtY9dpkFqwTpwP+9H12vObH57CzEkR31jlBrVKn4pxX1sO2QuEHCtBtWt5jVmfM+7H2HVYbEKThTXeypMd++dDw8yiBxMRz1QNEoop0jQwK7Fj4Kts+16HxQ8E2FceuxsRfrvtDqsaQcNN9HC0ONq9VqkPhNakt5xHAIb6bZDbhctUwr7WyjxAt421W8muAthpU9ksCC5o27XWXnTjxSJtJMDtrgBg622jY+SVqk86m4ZzqVuGZFzsK1jAunBIVdgjqwHcbcFL+abGVsDdq5dyRyjQ8aBBLCA+wNhDSXLozCxvLhG1eItKlpAqQRwR7rYNLZe4gJFLNg0FV/IVqVIgb5KJgCuBsNzduLgW0qpfIMbVF4xt9p2rvTClo6dR1YUJMoTFgpw6+cr4aGqF7URwjv0eWOR7LND00Iupe+O8CFqP5ei+Xni5BRzw+ge+cHA0jIIP2jeEHDjiBmVnY6uKOmiTMrhjOJZm6Cgowu6imAWfqgPobgdm8Vke/G/0w/qzhb9p/UoUJpGZnjWuqB4uwXcK27kdea1mfrSzO9yN5DMOCCtZ+FdomsM33GQXqOj4wOl/AqcOi19ozY3ca7EKoDLcY3FKUowFcDrWFBGkN6FYByu325zuCwlZHmr8AJXjMxQJqtmeaNTVrTZ/vHNVj0BSumdsbg8nhCZN7mEYQ5BTBwUItvni7gzt/gho2bT1qn6G1WxUgfDhWD/2UUU4dewVog/0s3EOQ4cvWPNYYSw9thOj10LY6mqf+DI+fpm+cBhaHR4IlnhnakMz3sKmT6R8SJ9amH5UMLnYPcjSBsIaB3P25KwElT2DMbJXI/XRBKDZNRF3phrnbEuWDMnPZM+ly52hljJH4QY2jg1I2XZS0PM1bZy7Hl1aDagrzlhqKzVEFXPnKVoXK0QJVruFxzfJmLo8hqTyy2Rjh8pnOiuz7HWs7CDwsihweAuA07wsiHxo5SZqQVqKdCvd+a+MqbGiwLfb5PtlGyIxOnfWhy2XlVc/+oQzgMotiLO66ltM21eNf26RcuFspqeGTtGWsbA9dAeQj/puaAmdr0P+c867KJY3rKH1UoZ5cN7w2RUudp3QE8OPD7ogdzSymUJkYhcdlE9BqpzQVMA7iI1a1FFHg6/OzB8+0oOYGrVFzm/tROyL9NODiNvO7kyRvkkv7m/VvQm8I0DSb4CSTNlVuVPlKJ5SExHBoxZ2Qg9Yq6OVcJz94r2HO8b3jmNuuF1+18w9NRuYoXcU5Xa1xvNLlJulH6dLck5jTohgAOxOyVl9HLwZNrmThZLuHaxYaHEcBYjIKBh8hsUpScK1qfO2UdJMG76ZTJvdIQsgrtkPDXz7SxHkpvtcXdCCz21GDg1nlK1u5w461rnhntE2LDhCH6NJJhn8HcojgTv7kRlfiLWDs8y4Ox7isy7izrn6IkbDrDWeGi2KyqQmHXSn3/LyiG3GRxoH0hMnkTl2GxQYb8Xx17YRdDbhiya167NbduW9So406InJo5nk494REJHVsjuAkPR80zo//E/IKaMa365/QpmdtVqoCrhnIwmYyj/r06pgLoorSaJaSI=","5"
"","","","","","instructions","15","38015","0.0-7.0","kdzn8c9r3ny3jfo","-2024-01-29-01-09-36","5722","","[{""page_index"":0,""viewing_time"":5721}]","","",""
"","","","","","image-button-response","16","39823","0.0-8.0","kdzn8c9r3ny3jfo","-2024-01-29-01-09-36","null","","","[]","null",""
"","","","","","image-button-response","17","44326","0.0-9.0-0.0","kdzn8c9r3ny3jfo","-2024-01-29-01-09-36","null","","","images/list_1/timeline_1/1_Clint_Eastwood.png","null",""
"","","","","","image-button-response","18","47030","0.0-9.0-1.0","kdzn8c9r3ny3jfo","-2024-01-29-01-09-36","null","","","images/list_1/timeline_1/1_Clint_Eastwood.png","null",""
"","","","","","image-button-response","19","48843","0.0-9.0-2.0","kdzn8c9r3ny3jfo","-2024-01-29-01-09-36","null","","","[]","null",""
"","","","","","image-button-response","20","53352","0.0-9.0-0.1","kdzn8c9r3ny3jfo","-2024-01-29-01-09-36","null","","","images/list_1/timeline_1/2_Julie_Andrews.png","null",""
"","","","","","image-button-response","21","56774","0.0-9.0-1.1","kdzn8c9r3ny3jfo","-2024-01-29-01-09-36","null","","","images/list_1/timeline_1/2_Julie_Andrews.png","null",""
"","","","","","image-button-response","22","58775","0.0-9.0-2.1","kdzn8c9r3ny3jfo","-2024-01-29-01-09-36","null","","","[]","null",""
"","","","","","image-button-response","23","63787","0.0-9.0-0.2","kdzn8c9r3ny3jfo","-2024-01-29-01-09-36","null","","","images/list_1/timeline_1/3_Patrick_Stewart.png","null",""
"","","","","","image-button-response","24","66786","0.0-9.0-1.2","kdzn8c9r3ny3jfo","-2024-01-29-01-09-36","null","","","images/list_1/timeline_1/3_Patrick_Stewart.png","null",""
"","","","","","image-button-response","25","68594","0.0-9.0-2.2","kdzn8c9r3ny3jfo","-2024-01-29-01-09-36","null","","","[]","null",""
"","","","","","image-button-response","26","73781","0.0-9.0-0.3","kdzn8c9r3ny3jfo","-2024-01-29-01-09-36","null","","","images/list_1/timeline_1/4_Stevie_Wonder.png","null",""
"","","","","","image-button-response","27","76778","0.0-9.0-1.3","kdzn8c9r3ny3jfo","-2024-01-29-01-09-36","null","","","images/list_1/timeline_1/4_Stevie_Wonder.png","null",""
"","","","","","image-button-response","28","78783","0.0-9.0-2.3","kdzn8c9r3ny3jfo","-2024-01-29-01-09-36","null","","","[]","null",""
"","","","","","image-button-response","29","83783","0.0-9.0-0.4","kdzn8c9r3ny3jfo","-2024-01-29-01-09-36","null","","","images/list_1/timeline_1/5_Sean_Penn.png","null",""
"","","","","","image-button-response","30","86793","0.0-9.0-1.4","kdzn8c9r3ny3jfo","-2024-01-29-01-09-36","null","","","images/list_1/timeline_1/5_Sean_Penn.png","null",""
"","","","","","image-button-response","31","88782","0.0-9.0-2.4","kdzn8c9r3ny3jfo","-2024-01-29-01-09-36","null","","","[]","null",""
"","","","","","image-button-response","32","93303","0.0-9.0-0.5","kdzn8c9r3ny3jfo","-2024-01-29-01-09-36","null","","","images/list_1/timeline_1/6__Brooke_Shields.png","null",""
"","","","","","image-button-response","33","96008","0.0-9.0-1.5","kdzn8c9r3ny3jfo","-2024-01-29-01-09-36","null","","","images/list_1/timeline_1/6__Brooke_Shields.png","null",""
"","","","","","image-button-response","34","97826","0.0-9.0-2.5","kdzn8c9r3ny3jfo","-2024-01-29-01-09-36","null","","","[]","null",""
"","","","","","image-button-response","35","102343","0.0-9.0-0.6","kdzn8c9r3ny3jfo","-2024-01-29-01-09-36","null","","","images/list_1/timeline_1/7_Tina_Fey.png","null",""
"","","","","","image-button-response","36","105053","0.0-9.0-1.6","kdzn8c9r3ny3jfo","-2024-01-29-01-09-36","null","","","images/list_1/timeline_1/7_Tina_Fey.png","null",""
"","","","","","image-button-response","37","106866","0.0-9.0-2.6","kdzn8c9r3ny3jfo","-2024-01-29-01-09-36","null","","","[]","null",""
"","","","","","image-button-response","38","111381","0.0-9.0-0.7","kdzn8c9r3ny3jfo","-2024-01-29-01-09-36","null","","","images/list_1/timeline_1/8__Pedro_Pascal.png","null",""
"","","","","","image-button-response","39","113561","0.0-9.0-1.7","kdzn8c9r3ny3jfo","-2024-01-29-01-09-36","2175","","","images/list_1/timeline_1/8__Pedro_Pascal.png","1",""
"","","","","","image-button-response","40","115373","0.0-9.0-2.7","kdzn8c9r3ny3jfo","-2024-01-29-01-09-36","null","","","[]","null",""
"","","","","","image-button-response","41","119888","0.0-9.0-0.8","kdzn8c9r3ny3jfo","-2024-01-29-01-09-36","null","","","images/list_1/timeline_1/9_Kristen_Bell.png","null",""
"","","","","","image-button-response","42","122593","0.0-9.0-1.8","kdzn8c9r3ny3jfo","-2024-01-29-01-09-36","null","","","images/list_1/timeline_1/9_Kristen_Bell.png","null",""
"","","","","","image-button-response","43","124403","0.0-9.0-2.8","kdzn8c9r3ny3jfo","-2024-01-29-01-09-36","null","","","[]","null",""
"","","","","","image-button-response","44","128923","0.0-9.0-0.9","kdzn8c9r3ny3jfo","-2024-01-29-01-09-36","null","","","images/list_1/timeline_1/10_Jennifer_Lawrence.png","null",""
"","","","","","image-button-response","45","131644","0.0-9.0-1.9","kdzn8c9r3ny3jfo","-2024-01-29-01-09-36","null","","","images/list_1/timeline_1/10_Jennifer_Lawrence.png","null",""
"","","","","","image-button-response","46","133465","0.0-9.0-2.9","kdzn8c9r3ny3jfo","-2024-01-29-01-09-36","null","","","[]","null",""
"","","","","","image-button-response","47","137972","0.0-9.0-0.10","kdzn8c9r3ny3jfo","-2024-01-29-01-09-36","null","","","images/list_1/timeline_1/11_Timothee_Chalamet.png","null",""
"","","","","","image-button-response","48","140688","0.0-9.0-1.10","kdzn8c9r3ny3jfo","-2024-01-29-01-09-36","null","","","images/list_1/timeline_1/11_Timothee_Chalamet.png","null",""
"","","","","","image-button-response","49","142494","0.0-9.0-2.10","kdzn8c9r3ny3jfo","-2024-01-29-01-09-36","null","","","[]","null",""
"","","","","","image-button-response","50","147001","0.0-9.0-0.11","kdzn8c9r3ny3jfo","-2024-01-29-01-09-36","null","","","images/list_1/timeline_1/12_Halle_Bailey.png","null",""
"","","","","","image-button-response","51","149709","0.0-9.0-1.11","kdzn8c9r3ny3jfo","-2024-01-29-01-09-36","null","","","images/list_1/timeline_1/12_Halle_Bailey.png","null",""
"","","","","","image-button-response","52","151526","0.0-9.0-2.11","kdzn8c9r3ny3jfo","-2024-01-29-01-09-36","null","","","[]","null",""
"","","","","","html-audio-response","53","160687","0.0-10.0","kdzn8c9r3ny3jfo","-2024-01-29-01-09-36","5990","","","<span style=""color: red; font-size: 24px""> NOW RECORDING </span>
        <p>Please say out loud the names of the celebrities you saw. The names can be said in any order.</p>","GkXfo59ChoEBQveBAULygQRC84EIQoKEd2VibUKHgQRChYECGFOAZwH/////////FUmpZpkq17GDD0JATYCGQ2hyb21lV0GGQ2hyb21lFlSua7+uvdeBAXPFh7kI5dqbuXSDgQKGhkFfT1BVU2Oik09wdXNIZWFkAQEAAIC7AAAAAADhjbWERzuAAJ+BAWJkgSAfQ7Z1Af/////////ngQCjRBeBAACA+4P/Mf0Kf+e4tlwcqch7/Og2wNVobWQEwZTrB9ogkWp1YfFW+ZkhiVm+qn6ZgSB7tfu4fRyzyLVR2WoRfe/bWtxNeU3mp/SbyoqkZJPxUo6vCRX7j0qcLkRH6wQj16FRb6ySGVtLhOeszXtZhCWSq/5OJM+kY/Xi0WvtKpI8EFTjgykLipykqnejBPCiBAGU28OnHgs7+b2htd2I4hh+8eaoZp4LNVq5UeccBzmJ6S7ZyCLDo8fx9GGGd436tARKKypVsXrxR+l3QrDTOFL5ImrBAAAAAAAAAAS9t9KLDFsQsAJQo0L6mud8a2SPPyBb/Gr8yCzX04+DlldiJCK+kxLd2SKgwueqIASIKOpXCh//3y/WQKC0715IF1uLBqL4Y66/9695GhKNSx1RPOCvHweOvP3Rpggd9XUjohnkvflXlBh7w16/OrFZxyycKijfOpOkidJrXt+zcZWra+fP5BqRhCwflX/NF5dkFGG9zyQOouLvOtPXe20bEoPRmrmcaUBr49kiov7ffQjQ836MZsBqvIoDjgHjM3oZ4pixHgcP6OGVcm5T83ZxD1ipiSKwazYrwXS05cmkbUQBW2631D34luMWaZTo+GD/m9uTZeBN/87NFvwT6bNx4TVioNPCTXWyCke87kABt4PTWIekIcV3UW7C/cErwKBotEcTs2zCJgsw1ttHPUUAZAmkCOeFrQY3yxLgjoxkNf1zuA4ULLqP27hsdUH3Mkheuxdb4ngr91SwFKjLBhcP/nByn9zQp3/z+8x4QrlaLx1rpiWegpjqukjVCPVHeX7ox4/ZGNL8WISn114oU5lPxqS7JlyjlsynwloL1IgBeMdtYfRy0xeeaobFB4KEdvbveTXid1+ezsduQ1iE6lGkZoKXiz4w4reCZbTduuUrBOPEAfdDbZ6uGsF+Zfo1i6Lzquq1AjTCESmtJ73YatedbD9e8WW1jIQ4Bo95KsS/JfGvbkFzcmpucDEPbbXDi/PN3eNuYRI1ss9yC9XUbsRtZB/Xd5lw1y4PPF87O0MmTr64kn+oFbyU5dUaZU8wpMaMLNdpLxevoy0RBsuDN30cYw+GyjP9BoMMoCFpoBSPEvhfrvKGKVfc2UFZ7KIMMr5xfCvCaFk0AK3+SVwjz+c/FU1Nnw4zBlcJmM79RRKVZqhgsZf+lpDJSOXxWXqdPIQnifBM9knODg5D17rXyOEd6FDHkyopoCyFXp65KBRulgcACDSCga0CrE0zRaQq0Pa40ooCpEjwMoQVUqpNVpNXmS/sPtbQREfcF1sg8z342dUL8ALtthvc4iH0z79akLVSvFLUPwRY6Unv4TfBtlNCKPWEaXhcgYpDyPiEN4AKg3Cj66Q7GDVY9w61tZzqX4uU+H3oyVeyIm6jQ4KBADuA+4P/CvwLYC44zUvw1M0Kgyl5+9jFn2NHz9nerhWvSg4xugTs6+YBPFyz+Swo3dpyC42JimWmVRuwDjsFT06e/xtiLIDUdCsXmLYpVuYdl4fXP+fvJq36uuDqiUKtmHheuwYDiK04vHjQ3UYtLpSMYOGNvkYH8QqDWSxgLj1cwxhNGv/HZRQYT0F96l5qmyMtraLc/EkKQibpY1bC+uRdMB1HaLV06J6tBnLP6yBcQp1+xSeQFbyW3nSQb4X2wLOLxgSR2lr9mqU4LYkdT+/PytkWtECVuHCsrQ6W0Q1p2MsPeI187AtQLpEf6zVZhMHnV5QjMy0wFiUC0jJbXueT8yIKKQY9VOqJKyD6Xp9bL6XGJ5fVOGs/srvaA6ndN1gZm74QLP0b4k/PKKRDqWA/HPxHQUUz38noJmTeoXO5FzD/3ziu5FnqpqzDVHuEwcWElNZyvQDZKtHCmguOSNhhLeeJL04kQiak9d08aWhe//Kr6OtgZrI6+U7CQ22Xmcb6ZJdBWzRS2AeCYQvRl21H8ksa2xTHAfbTwDFn3dAPkbp+chg5W4flPHJtnKRLG5XA4sUNkCgK7OmzGfd7y5tBXAzRfvYnqA7C/XZc8tOGvWshcgKiIVcUqDgp2BT6vUM9Lo2uJzA4fgNUmGxdHsCEfvfk4sgPPWzjE2/SHjPkH8OWTbEyC7tYp+JqClNaFYwgUphKSxA5TxmfEjTiqRYCx0WCnnab+hhOcGyaZLlQJMXfMhxRku3h3w0BgOgd9II9/8Jb2TOufhm5B+ei3LEzUNGBDALeYD5RmJgH29Gle9GC+jdvprG7DFTNxBJZS2fpAPEfLqObiEDXdD4lTrIkV+2yCCuyGgcTJwTIaOhdB9cSyNab7o90ohddSa9fjIoOBuPPAakIVE2YfNix6QK0fFlKxqTe6GiPo2yjNFOng7YKhBpZs1PVjn9dlSS3pgbUUtSQ77YKBdpvDO0mpYfDUXgachT9hWXOA4FcYBPWCe/9PWusKRPUDkXnYPS2PvidAyQEMgHmqubtwfEhvreDqoKzw1h3Jhs3TOAHSaqD48F0wvz10fQdaIGezd0eICf08hYorpwzwryeo9tQ+s/YndfAMKrIrwN+mOWILkT5QDG5Ll0ObJGYUd0VyPFxtbUkMaSDTgQ8GNgLeFUC/5eQpfEb1Mx9fOf6owD15u+Jo0PFgQB3gPuD/w/8EWEiO9e8u9kYz5M5KKXzfiO24sMfCjYELbROzlnklbHbwbK1FUOwGX7UNdUA+/xnK8eswNPBGdW1hAsXN6J5NL1HaDkP8V4Tce8cU63vZbHfCw0VTNkLMcmqsK0Flbh952W5sa0z/RhMGcnKgTifNTMyk/IkVuzz1m1gY4IOtQ46P6Jl6BQNpP9eEOxy3CP6VAp+PAL3DJJaF8Cp8catdlFYzmvl85TL7ND4Aw7RgDnSEnHi1gqm0ddj7IY77rS8uzyqzxfCzkBnFfqnD7ieYEzFfQSr9zhXZWgdK4jrxBPcAHHrLf2zGLdPU4CWSULAsqDOfEdbbVbBKbIFcwVnONHZmz+YMxJ5XAHwMeVOuzw5ntE89HWR2xF4rdky1jLJ5iGY47uioa/rVL5ruhUTkzv4FE0dyaaFSYo/eWA/sWHNdnkzow94jOP05ZMOchsSP2LxBj8omHJHtUKpQ957q5UaMmVO2ZUi061uAllXAPbDRfrkEeVmONdfecnUYYoum/vU8+7FlvRbh7MMKeFrvDWoxkcu2leektzt8Se+sePCJbV+UpOK3QDin7HEEMU+vO28hKZeFXFtT/FFkkh2hZE6sPXWSUWzP2Xe6lVa7f3mr4iqsQYbW19dRYMu9+dM1Uivg+1v1IA8X/EdYRhtNwpxRhvueo6KcEoe3YwvcxOmP1/2ve6jLxjUjq8JT4RLZFQUJqY1sleNgiO0+HaTGnphER1s0bKrrkvOvogC8r9YgM/K4JJ7nDPs2AHFmnaieorPrLa8tpnlGtgiBbvEW7/19K6Pgw3snL+jb4YtWYl723cxmK2ddWikuelw3hcaRoH9nDMV4QHF3DhsXr2akU+5+FEb0M3hnqyl6fSxxu2yKgYN05xsVYKA31R8YCv3pSqhbWZf73/GwjS3q2IpereLPLW9Lp79bzgko0jarKBe/mdivQ0aMj55YgFpqej9HnW/hBor1LMBJlUvAtFLmyoIyUZ9XFySG9KUBA30tV+xyqOUOOqB90yv16Sk+Wq4O0uovoLUubkEWf71cV8GhdjCM4rb4Dl3+YcokuOXg7rbaL+3VSym+SqnLeOs3STBTrhTVI84SJSff8uTE9MDLfaqBJtJbbtbNcWf8DSUJjcCmqNsmbrh09OONUQ6w42saclyAEJmtH+WGT/43jtlKlLVASp/ba8DE+euADO3WnDjWxlb9nSyVFctPp1W1ryFPtrJp5cfD70/GiMloviCpNQimkFA0LK/ezNv+LSaGZpGX1qqTTvbrupTwoOjQ8aBALOA+wNgaxAiw781ZrjIaQfWqf6MoZiRArAjukY8GOQdwrildcyFbxbbAlUgSA7XTnm3A1czfxPy1Bazc3sIYqj0dnWe5CGjp97tEmf/Y5Cu7Mvfw1q6mekMjHRMdArTLXxHOzC9xylLR0kZjVw2+/5hXl9t4+a9C9k/uN90gPEywaIoOZY0PgCc7TN0i9kHQm0KEdfCJrqlCwodRC1fu+I+AQHHDvvnbfQRSittE1qCRTC37xfwZZbdBp+7V7SoReYVX/jccym10pwo1OAWm4gQ3WZhNWWGaTrCFoPwALQwzT7s3sGGfkMFcvj3a7N+0claDEYshnCAJkJ+Ya7ruzsp8Es8u/BUV/vY2tk2D3I0OVsiiyIw0T16yIBM7ZCX/R1rkCf8KSSd5a9FdjszPJI9boAJ+A7hOdF++in8aGoAidRXd2EYw1ifLvwusr0OIyy9myq9GqsLQq7uCsgStQMY5+2GVARdM77dzmfSvaPU8tO7c1Y8pPTcOI1PEOIAkAHGOPC8+4X+GT8FNNUGoni7AzhjBSgY4wbkQgpyK7/+qe98pmg95OoMc/rBEQDqNKMVi4ycpGNjObswTINVQHqVJ5RZPv+X4EA+XkBt1bPS+iiFsWi5OBAa+OkX3EFgCcqZ4OTKZR18rL8UO2OxkdSXXOnFRSDg0Dr94tCvW7CNL7AmgkGNBfnOoHOO1HPgaHWhtxZxcPspOxxsmNqP6nyWUWzcU7sKUiWLE6qQhukFz/6GrpEavBvWFHkgYuxOL6CN90SCWJyb6aYbMvveL635I1hUreJITGJ4fh5Laklmypk4bdTVbssisp3KxXwEjySPj1C+8e0E9XJwGy59vuEx/PmvYRi3LTKCfVf/TR5jpthwS/fa/N6spmOtjSZJGmRlXRMUcJYNW2wVag0rev59hAtTfUMxh2jK0z7n9OBVLhKWbpqsX+3S3WU4R/8HDe94rz5HWLNZU5dqqIc0D5oNuPXHhT1D7bOfVkSj/9CvmqMbwJ7+Oj94NdFpbDaqiCgusftEr/qpZgmlBFfEdMm9L0JOd1jyiPMzkMleqtW+Txp2/KkzK+2Mj8p+hItUG1USys3hpIe7bfKdtnUKT2+HoEjCPoyekB22Hv47KlRKpGALIm0jbzgLyJEThPs3vRNzZVBmpGLqrctM3GveNLaq4ecHuuqUaeGwKr9eCQmvusegd6mE0UxFeeHp0d9DUVAPcPbZINHPY1Rr2Qe56PeSS3jqhHzRcj4u7af/EPv9I5CczPW2v+wd9OoaHoGFLX05KO2jQ8aBAO+A+wNhICAT5O5cyK7LhHCn8aJ+8TkWlG/hvVm7RYO3bbdFSdW5wSsa5Nz6qdPbtNRe7kk3N3ysTEReBkYF7Yg1O0gqI2s6feZybkawlMngKA01AucM2e6b0GybHnmQExf5ISpYvceqNvOVuEmMmx39//CwQYRiPWTlwTh0ogJnWmc/ikFxsnXC7sQ/7Iq80v0dzmL33RCZl4oe0pni98OPHckTJ8nXY3BsNfnAngeDhskE0o2eu5b4wzmmMP2q8ZdY23nMxmHBNf54Ubxagv930IM8P16bUq5+DXqloJ8Mrpiv400RtRP8r+3CJ5zcoh21/ojGhqURu+Hl5bV+XI8aAlwu8WtGiyku4YHCGYHCY8dnCXIdtxLSlrcVVGhxYNHd5t3QAejIl/6iZ3ATnW1vHB1oBVXFQ/YoLPoMuCQDuLFofGBuFjlRWHBY2lNEoWcBUUbuceP2YUQfqEiq9b8PDFx+jRGNYfea3Q2DdTTxfUpxU/smNYcPqhp8scC1anr7vxtN9gh7cJycfhbCJBCkKo2jeie5aZTCvID3lgGF3xIY/Y+GsqhNI8gRWvgb3ybF5saemi+uoPjhHnK4D4eFMPiK+79iGd3DjD1OnTliXIfHkjS1q9i8Hk694MQC5UU3Jwh+oBD+BS24PhQYl7H//FjTytCVhgpI6+g30EQtztIVu8YPnreNymls+NkNYVC1BLhccLfS+/bjNNrqAPov8XJUrSutPVsuM0phSomOqmrNZFLhEyhK9/FDVUHSPqR/nxC77/ePE1ioPUDdUVP7ivrWEJjqjuGh7PEqyZBoLV8jZ721FuPcT5qXBjQS48iYOyXwlxPNNIFaqxxbwJWJbZ2AXrwipynnroUUSncCMkUCXeS5UV4wHl7G1IUz82psDgXu5SgpkT3XpK2Ib7ks/20C0sMNP1V6/oUU0vqZOZQKDk+KJxq6x8bLTquO0W67wpshbG3gxx+Qcbqi2rqKwMvGtfQ2itBx+qS/u2yBjMba8wNuZX6kQBIREoa8jiyxHRe6dQygFAvJDB/c1XqevsgsBEOjRwFap5Ss9F78HfgCsw4KdI1X0oI/7OEhZwSwIYz/7QKL3b2SusXok5W5ZpG4hctZozZf92TI165WzOsEatsdzSm2J5HvXUlYkzufLqpmmNbsQvYJSgr92FZiwmqvk1VBLLJ0WY4s0hYmB8qno3rg5VVIyifiWFs7t08TPSWicTDhzuJGLJ+VeBC3H7qTZ2H8pVmJaJw6bFo34prdEU9FZOg7bakY64ZX+VGpVECjQ8aBASuA+wNgbgyRFOKefsINIwZ1Ncj/Wrrt/ZeAZ9+gZ4BBfXuzgvIMgjLs+uVV7pArNEr3lChVs3zyREYIrLEU9wDLF4Y44ShchluGP4//dBl+PIbHfcWxvQMJS3+HcrJFXueYgJJvYj8coY0G8fKEnZkvQGVwKk0Avd2rJmCmndRkw9Fg1i3SBgQH+98nlWtK4SRZ01Cin4bcviaBuBUrW9heZWNClyxLZmxf/7H7nkZLMyF9XjsI+8DHevNXP9jrYNARHS9ZJKJbaWG9IiXQwrLqgnI1DJCwrEFRG9yeSxtv1oD1nELO6Vn68r8S0DVBGg1lgdEnG/sHNsuvn08nBgCBvRBdgp0a/aY5iuJfkTfW2/Abc984/KN5jBn+w5a3NDOaNQB4jSLDI1mmRM99KxWFN7k8eh89uHHgxKuAsdaV7l3OdGA9+yILXJA2UkQy1IgR0zGRKfCpSl44ax+22ZZT5P/sVffaRpoui7AcUtYvkKjdU9F1heCjC+1cy/UMq15RXrnae0jS0P7yVHmjZs5hUACaBsXSUi7XrJ2EgHSsetacYeMPJ5DcWSqeqQnpZt91oGUK9HAOcXHqBuANoVim9I7427Kdgd/7mQm5E7IC7S9/7mTziw9LXTQDJzH5trGIe3odGQkVy6odqL95zprZjlLgUhzDI/5vJGVSu6Rmeb8AlYvv+cVSn4KbO8BH5xi1lq5Zh9lHmN3j9gKvFuQXsSRlpfkXc4JjMCYvTjGjzUIB/wIFK/MLH7Hm+PSg+eoRH8ys1UfV/NsK4B9QhWDfQp9DQXFL2pk0+FeU1dLR4RUgxlyjOqfprYFUlQRvGUCFLx6uKIfokjg0jB+JeYFehnVLYYMEeuhRO9mvKW3L00rE+cOIbe5xSe+jsTGmYCRTVLbCJKcX//9BFFFBa7G10y7THl7B6FIkl8FDTpzEY1bbv+gqHWtP/a+wvmsOYkLzfAkMfbu3xblfXuoTy7Lz+hHNVwL1UubtT2N3jphMvAnvdHK+lOlcvvBBEarTaTrMt19vkIWPGZevIBxXBAKd8Xn/unXT3zBEJif1c7iB3lUvkYazbJ2KuJOLRxWV8R1FhBGIYSCbyTtTloGvrKsr1D3prY0uonrpC86CBUG0fAoOIZckB33omCQXmSozs208WGCe6/ZFSW409gonIS75DslNwnnjcJOy56gsPay09QOF2WVs6AvTKmKhnbSh2ozPNqMZqRJ1/DzjL4zxg3boSVQTWdlMboOTyCmU417zEQabSdhPSInSD70W+agRhI/TABejQ8aBAWeA+wNgbbzxlGi2YO0kNd5hk1HABIStVCpI3/f2eb+VjXIHyQ97GJRjD5kkrJ8HDRzvw/WyJqrAp9z7GnZKVOziwAiJra45pgrXSFq4FGAW7LxbH0qRAPc1m2HMRVKgntELizzPBiNVmZVOU/xT1zFGZfvyH4ZXx3uyL1aeiI5g2VkG0xYEmvZKtmRbIe3JfQskawfqkUcx3IPm3PEOh6lnAw/cYuFXuZFV/OlDkuLmDNf0snH8c+nhRz61JbOmE2AIWBBomfeodeXMq5XA0Fz1DSP9386aZtTCT1m0SiQYVidp1sKHSYPg1nfZCQzr/vZQdQr7moeVAHJ+E3VFovSKydf7Uob35M/C82mP/tIYzgpbe9Rbvmjy4ILF1usOmgOWChNuWJopg0SxjmC9fMIXW0Hq6n/AtTeamBtpZh+XBHVkMWAshq8IsH+Kc7EyamM4NOsWs0nEbOOFXiJ8M9JE8KNKJdF3pKL9NNgcpSVbrqIwzkhWlm1mzcIgPS4qD9AF9Yu+Ru8+bXTPTn7KR8zMMV4aDCTUF2IOGD71S8E+F1YLU1vELs5smJyrdekfh3lQJQv0UtHufgd7ZxvRaSyLyGft26jDcpoGavnhRmRDe3duCmsA6IQ45m7He0TwDi3m5Keq/FMgRb31mQmrVuR3HeW1X8TlpPScXphH+RN6uMB4xbgjTZSKjZJsXnBRF2WX0D6DWLYbXU4ct6MNAwqta3h/n6q4acR2jYTFBR/ByMiQ6Pfw57GYV7IeBntjwjDWhIzPQsWdKfPymcp3GC+NjXRbvAkQbeOf8Qy35hBYyiozXcmNhOTKiocJ2C+vVCJgXYwsp6kwd8isFf9GWTTCn1yAYRrCk6r+OQ+QAgOGNe5t4CUyv97EODsx34uqx4mmZ/hVSEZfWkQXLyAj0WPm5CHwpnyqGFr1xgfR3Dm37dWTD6nBipQXzaFJbtjd0bq2Y2PTqCqT6BjgoWBW6VJXSgBoP/Pls0LOi7fmA/gHlHm26SC5r+luv1myYwaD2eHYDYM9uaHhQIcU8eQbI3iT0wGf5Ic5C647K5RfS7NNHj5USzURCmoBrHtzKTr4GCWzJotzUSyrGMs9AvzZR82wvkRIzVtyObNBxOFr+MviEWquS1r3DEnRT+I7dcHLd+TblVkucAwba2CCTn94+hp4gGEfhddJIXW1BsD5M+Ho+W+ucakCqmoCi7lxh7M5wu3xyxKihXZNu7lYr1ZiEARq4ON5Mgx8ghr9WZHvnZAHV78Rgxzab1xA7lQZ/g1fw6T/43qjQ8aBAaOA+wNgNkfYyFXz9Xr4tKHrXMvHszlvK5WtAd0sHfS032kjY0BCSxWLb9fJNBE7LhZ6+Uiw3CX9cT98Vr73+dy5jL7QLnRm1KUamEB6YbW3rVpcFBjKOVu2IB8jw2pf7l6cAtNoBC1LNvE70InEuKikvCoL7lZcaUKpayhFk+e1rqUVuoQk//elRbfZ6EvK5UmuJh9689USUOWmlfGlAd3/OxRoAMJZJa7GdxmhcQ0wOo6pXZhA7pcI1sw8L/OamExdh1DXBdxJGnTCz0i+K6FF6ne8xkMlJ7yPvfUec8gc+MjnafsVU057maELhdV9mFyQXKfuXMUju7bzWPkrPBoF6s5Zi2cq5BrK/u/bweNp/NX/RifLx3gkXou5Rvcd9iYZdzVwl7V6pm0P020Q2U13JAol7l/7fwXPASw5aakJwQvW/mAuLqbhtiHEWHOm32UFADaCkAfq2WeCDy7z7UXi7FSX+5fTgJW6WHhoGlxiRY30C7E15rKZKZRJ53iVQaigpl9Q6TiCmgaazSUVqPrQ8OOsFv0HD8tsX5B1vtEmot/GM58c0Mou8oH6g2MhAIQ2U55Qk9++yw9jnRWKIvWHjemV0nt6VuAOpgDjQdE1hPpQJrRX4E1cHFSLN/bizA2gruESkTOCcAF2OPxKubSPWc3QcWikGYKw8kienvHlyvNtNcLzIzY74zThchS1SdmbawYqpoay45r9ld7vd4RBaQp0GXdW8FrImqcBgY30KX3n8osuYNJIPcWocmkfgrI8zzpB+pFYlaPofcrcjJCpmq7R75DAAPEkBQbqLcOEpvC4Ane9AxVpELaLkKIg6wfjJ07nWnb3Ez0Rqj2R2VW+/HujYC/W/fGELNRxkWJpbe7yJXQC+AznhZNaJlDsh6xqOKGD1QV00BgNYwIrH5p8jAruT9zFMgXgKLNW6dTjrZCdIfT2wmhQOCZ6NNpqapY+sobHhXiMGeXI82RVUaS7C5UEj7exjMKxNOFrghbvy5wbV9ISyXzCMUrWpguv0jTOCPZ6jNd8fOCoAY0fuHtfL2BxRBJRUEdD0g7rlunQx2djeG8LSP/+RwN+H8BSwPdKagBiFNfDwhqf/umMJc7tPJgo5NWM3bmoe4Nl6i7P5SXRx7CGvfcC4vfBlqOmkQa8bhvlWM6FV4hwq1VCpLV0jX51/UOSFc9M0YvS9uk/aKrgASswQsyKPIt88GP+gUQUjuc11tSYTfhsV2m7MWaXZFY1aWvZNPHhHJOPcLFDDYbcWLWyJb5tAJ2LKzlXVbIPHLCjQ8aBAeCA+wNhGMbBo/BLM6xnTjLGUA5pvFtXb9Kjf3mD4+F/F4FUpwFohPt5uwYAPv+AfU/xsYS/ThHklQbi8i54IHTVmBYRLEwkHykgUZlD68seXma2ynBF6H19ygT//WivtuERd0FGZH/ER51lnDfpS50loPAYmm54q/DTdOVco9XXJVXC94g/5WNCbHAtO+ZUPZzyoRi8MAOECKk+ATpTje0W2C7dFU3Byh+zt8ehtxrPvKK7d5qmztABAnZGE9IB6iQ69JqkHkxC2Baz8y5eLuSJ3P6VYB9qRpvoFqF3z9DmSee7RfPneXuaqjBm62/dulkAG4B1UPRsAIBKlayMnyOyNGp2O7Rv/3pPSSl3SyNWnkUaf5exftVgw/Jqt37tk9M4UUqVH0UbMnar26a0MDXaPtg5STlae1nF9Rs6WKO1miHLnWEiEroPd1ZVWpDj1yoArLGmI7hNCOe41VNFDflBgi+wVX17MENAiWDvWQgqLR6CUDW0K6zXjW44nQ65GYImp8ouwFBFQn9KL7ONmoAwpFZV6Yznxnr6pY3GcIwnLcGuTB+ScPf3a5N61vxvVZwtfB8a6fw/rW3OW3arZ2jOhRpwLU6QgWhbW3XXTR8xY+0+0GRJq+Dt8zfz0HNceF3rCY+gkmLhNkgSLsRW5jZQQ5RdlaEO3SLqTvqrYXyl/VuKVupKRDlRbx+PODtWblVM+tkTm3GI7w3KOj3V1pr+y6g1YpWHvFI1TcZ4L7Q2YnWbpY+yuf7OdqkfjJBWLOrE+iNx+XeG2Y+1i0Ccl/smKrRb/7otUC7aL4HWEntgFZqF7Z6Uvq1Lx0QaEablYqKqvuW/Q/8SgeoUGQ2IRBTy7ipdYBGLsWrCxFsW4DvRIqfWcUZXGmXxlvgWBkCPJ62Q3jEDklDv3QluprkGPa6glLv+jiBhIIDjWEpbFZj4R1Runv2Ccc4bFh4T6fTII4vXp0qzxulZg9kbO8QmELuB7YW8qKjiFd9gSqpVFP9/L+xe/SOeNC0B+JLgTndlrSyMQyWox38pbDMk9Ctv183/5j/n0YBH7fOj4Q0B+EEtQ0pwI/Ah/5kXc5tVA0jueGfivwMvZqn7C9j73I+pF1vPPk7eQ/pyLN4DQd/A8KK/T6cw3UojWtv7LvX3SdO2Z0pxqUh74TGqLCRvw8Bf0qdE1atN/LRGUL3yBFTlURkVmBkI61ALVsGUs7jxdIL+NqO1EnPxBBCSKXjLj7OS8fl8KkG1D89nQYIyJnMUoKQ4kB1UtYgF++/FHnWtLYau5Dpux0GjQ8aBAhyA+wNgPeMf0oKjJeXjVjJ3JP4lz86855Ji/Sb2sfjq5/krmsOBoqx4/fx7y5igM5txgc4VkH5xmd7DdhjRcznYc5ZuQEsPHWJJROOsVLdVuLIzqWzNlhLoByBoo5UgdO7wG0Bl0PaebLAD2jpsxoyIleIz/64tTOvrBWGOMn9vPON+AUep2ccjuv8UsxmdVbi4lj3516WkKetKmqYFSMf5aaQPUaoJ31xeri3cHVtwyIVWSS3uw5MgfRCcjdXjAAaSIYYjo7npBnBqsSvb3jQ2VynTNBIounciwIQP7E8nTcfBuBrihqNAE+Y9ywy4xqvmCOBC9Q3p2Ysgq4uqKNl/sAaqJZMhkpvQpuxnKjpTIkfTHkwQkkDQ25gNeDN/HdLzxW1xwQ54EJdvHce2SkeIBHr7DwDtds0C6RsHqzcxfWrfyWBu3JOaPj+RwIaRJuFbsPUAIbCI6mG88su6wUKOEt8tV+OARZ6S9qVfTAvpZjwviiSv8KP9kRwujRNYRNPEd7BkhRr9CFX7wBfTOS3Ey1PM9nMIQ2cmjgC7LDp5tteWEoKHAxFGHovz+r9tFlYC9PNzcTn1yA3z/yfB3k/j+sliEUcsZOlwYUlTbU++CUBwljB2ORkw4ZdUy15N1vkh6hYIFTfmHqklGmohgewgijKbIjxD05sspdAYNVFJv9u0NCe8J8eqUYUvUVEo+pSEnr96rms3guhxGIqXKw5Nst3CWLP/pOYyb51zVu7E9viC0v0AK1ISgjEm5yzxJZzhf/51Bh8PknkwiUa9Kd0fbuD3pE/aV85BiwVYn2lSdSAixbPUhOQ4fdSMDjkJgAdJHd7Ow9jeNfMCmkFVx20SqFQ8YD7xSRxiAAhPUX07VPvXnL35vl3qdfIYJvK0QVJDIwrpFbFAbtGENNZy9NZT61ZLdIp3ziDXb1kLB8RSxyxt6CrxmIp1CDbIXOyCwJgEqasHlsArDutUz1bk6IoWRrIGyam9PingNfGiZABHPL/5nHqHpKUmpjBd7qsPkG+7swHGiBfGGo1cjbh+U0ZYeiPKTd5Wj9MUnxf6H0ai/z2E/V2lVvb38zOetNWPBr+MATnMHHXi6vQYDVw4oUpxYxobmOaJjq0a8Nkc3fiKdD+3IdNPHSoebqQs2PIt/lwEufA0d4F1ga2eRemREEA8n0o4A3I/Ba79szpqQODDHVc6o/hvkgm7ErBRUicGYUyiVSQ1WcbGi6z4eTdWJXLqFiqB875rHhjxbyB8oSfI5szrPCNtM+ULrwybHKbbJXyimOmjQ8aBAleA+wNhIGzAPda2JZ+98NJADSGobbgHZ6ODluhcmNB0qivO7IlYyY9ZGRfpPSVNTY+6FAJGi+aN1SFi5aN6N+iWO7JGHorar1uVHrOB2wrVDghErOZhIZ6XkN7EoWx8evbK6lm6tadx4h56NpkcbpCPx1KFEGQKRCVL1gtaR0l0XaWCpsJoLvnpRQUyhbPm3lqnNvoIhKNAv4FN3653h8QYtGiQnLAiMh+kUpKtAAS8qxfpP/egAgC6eDp7BhkIIxKzA9r/z1WvwrS5vV7W/FLZNOUWgraorzXFBo06658NG1dhpgHv87r9Gqxa30ZkrtGC5KoKDVMUVHRoR9h+8cFnWZXh7TBcoTr1UY7PmiYfV5TCKIIuVNPVfs8WzfMs96QBfxxuw/KRBEutm3NW3x+sVkwEzTZ7wN/G0ZxMRrtlLbV4n2A+9hsl6bzSmBBmteI2/nrUkscJ/KZvvb9XgrccdHIGEF4629CtsSjpq67UEhH6gI1jCQ8eO43WTpXH0enT7TA7XuRbiU5/5D7Pt3L4Nv8sfaoRm+1a0vZ94GHByPRzzPleXCje5GgR70KAQkRkJOZNaPfb5wPc1o9y4h4v7+6wc1ZCj4AXBE2UmymBRiCt844knbjkOKq0KrPyJRlbQQJUNrBwb43VxMgWifjEbN7Vm0+DT5mbqn9fJ/o0iocxKhiup//veWuWK0XgXn4XvudzLFDp6Bq8qFHbnkL7ffBlCE1ltSiBcDJoDyZ/kQaKUEBFzJQHTMYg2k9skqUz+n2ZcyVjL24NzSzHoFoKMPMqwUEGJZz7ZUWvHBvmIUVGcJCc0CeWJcXASPG5+jC/oTTLgX4CoAHwmh6pLjQ9xQeyYD4ueQCd6cFge92QMN67vcwTd5Enu5BN55RPAMaq1bbPWYY99RAENvxM0Z9jWWisO3Y826kXPSamWbtjUjVQZAIDzBd/Mong8TJmLlbKtRJsMOrvOea/wE3rv+vBBREEvHg1qUlVPeuQxXzk0FF5r0jkuZ/dwbMM0wdC9cVqovS1nh58kmipzNUCHFFa0FtzmTNvIMzQig7R8PKXbGoEaC/6OtdGAcSow+E2tRwOqUmoo+CWwDiKz8adNHjdnAsAR8GfVrFRnvKYomUryK/+oRTJ3W384c+RvngU3ZVGvdaeJW9e6OYZxOeor02TLeMffSooyZYo+lLalOPoSNsvlS9GxUrf88pmkqMifqhkg+EcMyZ6Z49yPOhw36uOrHbp6nMaHnWQk6O+GLGK4QXPUqyd4PH0dikcOnc/rn+sYW2jQ8aBApOA+wNgbcidUKtzypuWBLJ03A7FseS+KfMkb7J0SLnPR1VIbP4yKdmjETniXd/smCDEkQakRJFjAB9aWg1qPnMzzHnJE4FPj4VG/RcgzV2cXFJI+YpMnEROaybH//2Wr0G/3TS3mNKyuJZKyfzjKdy1iQ4pnft8UcKwj7n2sg163FxPRYN+xn+tR1gXCvqiHwRyEGOwe9lp6ZKJLUV+b8JHJ4M3joOZ3R50AoY/VQnnC+V4O9UihYfsDYkP3exJXFw+SAuNq7LpjZvMknHzVYfj+jCoMF4bDJECTg3Vq/4UEVYT0/rrxk44FNWTR/iST7mAfOIPu/KtCSZIfd25EEzyjsW4sCmUaE3DQaAy9+zqR8ln8dZQfQKXPd0Jhwh4vy8FjIJKDhvbP/JCDOLFut2Its1Ygj/L8cm7xxxQrIdpUSyMGGAslu+G7bDP9Cl3EAIPGiUeJ5zfrdAeLVYmXx3AL2+R4Tequb7bN6Il3cwE1NkkLtybdFeFrwI37SGDACA3PUALhSwVbZscqNJw20ptNoYuzjnwhG7pUTv0+OaXBwBTbuHMtsB6hjX3ogekPTdILwh9CBt/S6VLcYvoLelQA/DeEBvzxFG8arDaMCgXni47hVdpMz0zhEOMr/w1zvlOvTTFJOzkCte7CZWoG6iwXm6ySCzijxLABjNg2L5FZiOUcvRY4dvmIZpCEUZs/Ua5bkdJnzoOIOyJM59lAXz9+mSSaRvRJfgUtzfCIDH9oVjgXHfQOnHlcsswnY4h5+zSa0wdqiGzS3BUFe8V8PK2mqkfydlpEL07UQq++jh0PRQCKuXiuTVivHtQUiVs4XiuNc3S/vhimoMnewuDsNhNixRLYRuZypIqB38c9xi2M5Dpce0RWeXMBRhFf56gtHq3lKgcPFW0p7Qjh55kGL8hwuMB6TdhKuTsDerru03cOR2xQQnnNrqEgYolbXE1hefODKuQacbzuUSS650QKIp2q2OMy2EKukV+IlCtI0yfRMYcYYiYXFFUq+JWd71EkwrpFvrxFGcpW3Ffxh+NSlpdmEEltElv+IkwghB1fDt+9Nb+IdrcWBq6Bq7dBxoHFIKI9+Bumha6mWRK0Prm/31lCIUpuANdVYYxVocaqeHmQ0ymCRkG7PEPNR7TCugci2ZRYrKfjjOivOgzc70XDBvZLnrEtGre7+EtPrk6sfirMjXKDTxaIEgiJauIw5cOSCKZN+Ven/UZzosvaT8Oc2jgZPlQTNuYI614jCzvEWs4X03Lvgcbfj/QoderTZNutx1CA+2jQ8aBAs+A+wNhICL2wuUxQ0u8uXk5fZ7UIX/xyoR6PKQOs4B/esqJSqywmg5Z8juU+/aMyh4FAOO75/XFKi4Pta9I/E+aPZAChMiIZ7PZba3QFRui7fvV6lZRpYYi1SjnmTk2u+KQxDJwibny0lwCwiSRUJnZCrEaY+xOlvAVl/tvMRLm+miCyOm17ky3ChNF/qdjU4+cf27UHlhKzjsfUzz3BJcNxqz9KrHCKpe1cvJJLJ0JYsyj9v9vBvqEa7EJ5b9hn3/e+x/EJ0dzeeYbRaNAYvV3jw+SD/bMPKAnzcHxWPZVCGQWEoa9hQZMU4MJxvb7oaFiEVYHTO4dH30eM3gETBvH4sUNT6+Q6P4vthlyeAKiRela48JCiK+ipG8LYOhbLIVh8JKuTOyyKKX9YSKTlYU3blA0TVBPbS8NhaoI24sywfvk5WAv/MKsdHHoa5Qr+997fc9qxu45Z/OhcYmRBGDmX4Ln0pHfV9/BOgwT8W6SiLBBf851Qn9j7w25n6nax8IjgbD9+fxN8fzeTMnprmGSL+wEDY0kzQcO1aL/xvdloRU21qRja8Q9I5JJFwvMSyMvOMO2hVs4SIfv2vKxyTbk3Bo+VLuR4qLRWjDXIKVwxPLLtU7dTXvVswLBK9/E4IjcRBPU65dNiqrdrJU8SSM8dYX/uTcrt3uKm1+TqwgupnWTrYFKhOS4vwIiLTM9AKnln0vOE3GoH8RVixMl8U0Yyp8UK+f5A8y5FnERHQwk6iZUTDjpSc82f8fBRL3E0/OBI0VQKS7iFngJi+Vrsm40MirOG3Pgy1V0oj+NZyG+MTqj+Nf2/ltOoXv80NAQq/j7/5al+cIlB+K5nDqb/9XtLcPwYYFrqZs1BhWA9Q7d7ukYl07fdH6qM+SgKPoiC00gp+YRxfYZVFR6G5/KNOJeJ6wQbXKV0pTl6hdarL59KvnulkCOoWdTotWJojejjYP1lylaT+aMK5evw6Bm0cVOGWg1DVJvEmszZX0Q2cU2/FiotuCd9oYn0abo4lWzk5wp/bMvkkQh6LN7mPgXLO9pqQtg0S05tgOL91js/rRccpZjSk7A5QIlHelIH4Z4SaIoD/qjcDEhnYfj88gBBqG1TMvkFSYToqV9IJVjVEPK/5QyYYrilF1qQXX6Ytdn5IO3e4fPGdEtFhgD6klcbf+i0+He+v6tDPAy3uYAJLLCIsMGNVl5qfb3g/Z3npmWVbNdV6foYYvUYuPxWOOdaInveDwluDgG0UqPG0+iJacHVpNpJ6XeVR4kyomcD3U7v3s3SRejQ8aBAwuA+wNgNCWhxVv302u9r7nVAiXKxY8XZKURHm2nKKDJEl1BKWyqWcdU1yuSpNnxuzXB4FUhUok9EZDtnN7DAd2y7oSONkg9oe+i88CqLQzstb7OBmETlZBuZ+ob9q7NR4MdsxiW3ygHiVXX7Z91ZBKrMdoAwT48/pG0eFSL0qwlPR/h0Nr+4Q9kl+M1iiztB9AbeAyzR/kgYu8wzBngoUSgIeTUnzMRGEeqfP8qFFWqkVJKSltTTtoQNfSQBs4WTb/pebe6ra7dwblpMlL32DBmdzBQmAWTfrl7hdde94BOy0E82W47kdKPIb6N9fskYLcznXetLb89z0gvGAAH9CYGjwhOUjBhMlZ+VaVi675hkW4hh+ibB7fzq/xqBzsSLKGPlyyJALELgsqX07oyO3uefuvcRFOz8E+uLJktZTlLlHrfsGA2drwufSjVgY4tyNCmr8nMAEKvonuCfhIB3y3jfdFlucZrGTjGHqlMOfOOru25STOpAUdvY7/xXyx9+/7aPrgfZDBLqo3wBMH1nFTvl0Nbn9RNI09m1kd9xUuKwCBQ5aICawZjW1Edj7tEpQamF+1N84fnT9yWAfsv5COh9AQZAHWbok1F2WtRsOYhEwyMwMdH52F1YUwVfNiZsZW+yClQeufilYLKBi4i6OppVYRYqb21jmU03lu5Yf+jSkUhMBgIhKwv38tzpx6gBp1XVoWa39nR5juHozS3t6fPvWr5mJN3AknflmH+b+N/b8bzZPclFFcWkKPR7EBPar32g7skKXFPqZW0sFyf6UPQZysO+jrXQr4XP7Zu5L9LBhfkbB0Vx90ffb3lEWImrtN5Yz0RNGKUKsmOuMqKCAAM2HTIYD5NUE+jrIKx0leBBwTkLzU6LipFUVZXKeGbGwqd1EHaOY59VDmsry18pA6bc57A9LeMhFiLXGGHpGsxRPEEXlYioBXJfqjK7mX3GuAkAKtBgeJGKPH3kZF/jsciLK/cve14j8GySDiGTASnL9BLLUXbxpOqJkPMKYzIx3eoVDjqqr6EVOUMv8/eB0an64w75P9RJjxQ0waJqH4PdD1ezqnOGWVCRLD869PQVWuLJd82UFjI7m61R0VgBE8S17Y6QCwqj0mco4X9OTirOWdQEdhShpM82Q+oku583IHXrE/AVGAzdBbUYIBoFROzIl+i5O0d1vZasohyuE+4FnBtLqVcU/onNejsAE4p1lf5V7GtXan+bGp0BoxZfOmLfy34lYn/UPt4Tw3OeQUlL11W/ZHItv+zJFd5PVB4s7IhjdSjQ8aBA0eA+wNga4Hhtb4U2+kfHJap+/44mpN3Gl1gEH/BoKjWKGqCIxFKtB4Ausbp/iFjIoPkCkcThwmbl1GOZ5QBwEXyzaATnP7wHAkCFA5pXVbLTjEHapYg3p6H/WIkD6L4k3O3OuKDu0+GIXTngEpFZHimx0paHrhp/2825WypXLBd3wsM7NiDRGKN1Q6XV1wqep1+/BKA631ZXy5OrfEOttvJ4XsgCWJaBSHVnq5uYlx5H14mU9ooz3no52zWtEfNYM67pGdiaKkNSFR/Rzv3TKc+V0+HkiA39jXBOSFt7lg0Um8rArkDtRZD12sCeIdrg7gqFG+QHnOsKybyekpNsH6KXSvhYfvdSMlhFHyUFuL1A0Pw0gq+ectuXFLQ1/BzDIQhrZdJTb8O6MyDiVdmruVwObQnnsD38JuYsTsqmwtmBq3h+2BuvGeyUK4/lGXtEfNIRI/fOOWXIafeYYYy7zT0VqIKPfraZNHUVQVmto0rse1Ku4FlAB+xQx0WJB6lL58e39KBHu4zNkYpXMbnBEetP83HhJSCboS9LTITU2gG3OIgd5TW5k609mkqMceCjoWVUrLK1VAXrA4+NriVzyo1QqC1uyg82/S+QZODNbrkfACdFRCyBT6IoylK+SWMWEj6g8431LR/dJPsVJ9h5I45OYaa7RY8K2MaUJ9vdd3NqDU7xwv53SkqRPrQCzN0uZoftP9dxXRWDgTbRiXVk0Nuz/AnBZj17MI86QK3Gkqvotegi+XBG4aVo/z10CY6xtEJodjc6KRrGNJ/9oEl8zyTsM6qzSjlsqg2Dou+PZkL878TeGhSgHICbkcwsrYczlVqFkxREutBMz/bmjCjY9tzbQQxYGmJowY0BLuBT2zSvNq1fBySLBA8O4ynxMqu3fvddKq36CFYOBNLi7MUXbxmISuCKHpKxmZaviYShw/JKCiZF+EtnTDO00R2RW9Tkt2PvAGuPJenwy5jTAxAfWp9QyI5+w76hsdn79JJ34H/32FS+f8g3DTkA3EKBZjhtdz8fM+9Jz4gs6rnaW/Es94mGzP80M3IOanDcgPHBrfL8vksqaOjI0dIlVF4AO+b5CleelO0TlwhFEVic+WIDQ0g1y3Fe8vHxfWXZVjrJTBOwA6e6NUQWGUjAtXvHxAMcOCH64FiNoFnyKzCJfAVvBNYK9Sty9xphDUJsvwnArxzmM8YK5Ha5O2+NW7e5VGNNZ0wGd5TamSZrJJ5Xp1IByoimqphrURhJzDiuqsommKLyvygjS1w8td7QGiZO5ef94Hd72WjQ8aBA4OA+wNga4CvNeMJasOHMsgTRODLb8XNI+FO0ZyiyLeQtFy3vSQVJvKbgMYHde0BknFdmQT1X7QaMSCwGY2DaC/tgTX3Q+Iyt6ocfIgUXHeSaP85f4tsEYJ6RCcMueupZAAK0I1TYafF/xeBfrbSCd/epevnfbZ9GcEwe/+nC2txtsRst6nACLxS7K7bCQ/Yy6aKatQ9cpxs9ELO8oHI8tfumUeOjxp5zRAod7sOvg27fJ/Jk9EzKsyexPyJGT0RwYcuMNALbFGUmuhL3HGBoX43sq/SiT4AHOBzxc7uKAuFmTCLNqrlqXWZN7tRJxBGfyBRZq0PrN1sHAmy1qvgjVywtoUqRokPgJQlbrYcYd1aLJFlapCuzE6GOdAZ/P5lGBV7CusTBdKN8/6SraYhV9zvqOqFdPEz6B3CKh0tXRfEnoDRuWA/x1mg5APQMTV71RfxdqEyu9bhuTBkY7yK0pUjswhG9vgtXe5OHYPlRd35tLponEqnU5n6zQ8CWrnBmWe5EvBFtm5wKK/dP6HfTVypFIsKCW1p4xAHYMsKHdsIPKujgKNO61/c1I8N1td8NDCNktv3mUkmcBi67snr5CrnT541bo6yUPlZORinmX+nyozg1U0LWwE1IhuFxCWtGWE3D4br2oFC5+tcUZxk+KRWzjMh+QXLDdDV3uQ5qJ780Vk03Re2a4mv0UIUb/aa+DSZ2sgcvMDBkwrGPzMW/Cfj274KKj6f/ojJDb3mPIV+Lbc0ieDi32bJUkiS0vL387wfNOYpQKHnISRi2Ff5xjDK6dCLWXXYcOsc7NsR7CM2GLfEjE2r+AWvo8U5/Upb/BT0OKfR2ZkxhkeBKTvUg2b06uX4YGrXVMlmGf1e4nk+FMxRgXBNVixmgWS3fCv6ULfGltngbzlbRde/0VkR3NwRueJodoUgonDaURzJWrp4B9SPDspJLjKic9DFx61Ka6ihdB43PcoxknLez11S6XjF4Wt9zzTDW0uIPFiaivLVrPwCAr2H76K9xwRX20p4oVnRRTfJgjbmIWPVMVGBNV5gSiQ2kAbD6z4FrutvkOthfHOnI0fUuZNo5Xv3GShwfaBDaSF/mYiVOF/tWvI6WII5VasRLjLLA43ZRnr9a6ID6VqMu8eCpPZuZnKywvgbzBNlGG3Ous6XtLe5HKoz8kaCfCdQoOdGiK7Csu8XXFfbH1VPw9RH+Eh/seyHawnmVJtXa7HIhGKXOMkJ23Yr1fOJhLQsb8fbTsE+BPYZN1bczRIqPYX5XpXBFbaeUVmUTw+g+XyjQ8aBA8CA+wNhDS55rJDkSVCu5RiC4IJ8SwLEVqOnXYeIkmfwFfu4n5SgnXux58WD5zfc3HGMOHpcdSTCmZ0mjXAT5RZhWMIN21ibR6/dMbH3+e8y3RZUwh/sla7SyePBnYpy/uv9CX9/J040N3jJpKUJWb3BbK2zy5kg/mnxtUwtvnPzpfg/z0mi/Uxp2BYv0HbholVPfi+taPHOcZFeQfGf8efp7EirXWLXK2zqLx47MCBZTp/VT4haTrUPLy1WC73Uo0e/mBcb3kejFMddcCEObY+DuZg0FPl+R+DAaiQXgTHcZS7jY1SdIAl00rq50ATfsR1a4/4uwirAQ1dEI+N6y5LqIHa0BaWJkM6h02fYlQvmUg3TzuwOey36YWLzBdSFO6KZbEhToSp91niYjxpsIk5Wz6Rhzc8ENG7PWSwM7wngnm71xWA2eSrnUehRRwUZirMedg95fiIJVFgSxUwLA5TvzGIun+/H/UBn22ZA3qneL6qCS4/cWGAAxszYB4sro/4/J1JYSt07r2ZRjT/iyfe1b/BOvUMa39558UgpgfNlu22dDVJCC4Yv/74E+jyZNwUGF7U/yavpRrcTUMz7GBoeFUP6oAw/T3ZHmk1oTu0JTBJNjh2VsHrfOas4v5J6nlqaF881ZORWk8Y7NuEKtQY54kZIygX9Tq3sEnVY5iE5FzUdwHmec8Oz4RkXJKSdfG+ipS0KUCRcVoioQUlayyspqb1SryRlh0Kq95w+GLE0Wemx4/nRUKszACaWiDvmVDJcSPqLM9FMPHhBLOzBERBicHJ5+yCfThsD/QkQktCTf1LG+tVNBeYq81ELDHMgaOcBSC0PJCWngbwiGhxg3bGx0TDGYQY0oW86NlBPAPrQN0vTAHLfkd//9rWxvRiqDWvPzXZTzcYUDFhio5xss1I0c+kmsMw1K8YaWMEaPFkbehSexiTiQRHck/2YdccPE5+nYdd8YuqEoVMhMF7srlLEjbDU+Q12pSTuyGwVSpeYmZLx0gjMJymOmDfw32KgqvMXJR13aKQVcfNeJSQd1kGk9tXiNBIHNPNzUHI9SUt9exbQ9D1JR8v9IcKWCTI4hbeFk4sUNOwIVvwLBxPL1tU5WcFao/aK85TaEKqv8ESokeTpKaAx8deZU2s8CsI//igXJ/BNF71cHqJt6WInDiM6xAz1+tqYXbBdnPeEEGjJH41uudpeuctaj/oJBGgpzW3mRFzBcBsC61pjPZDjXQtvl6sswi4byL18MuDU7H0vYjCcVogYfNY5xMqcOnVQHgHNoJ6jQ8aBA/uA+wNgLgF6pI2Zi8RZfPHoJhshk4LukWIUtW9GW7xRA+tskD7sdXbVhZLTsuhr3K+TuD3uAhgBu5Y5x7RhZnX52LwpdwM6OJZ2nkYR7Kwbd0LP7iX9aYYsj2wTddkjW3EmoOoDJAYWCqryQT7JONlpAu0G/7Fargy0ia0cln9+3+CUYr8tHaaNZfOGOCb4r2bvWKT0qauRrnEQDmEhSbcqW03d8KSK5SWwBJwdh7oNXm5LFBUNUIAYkmHix/gptdS898CKjvkQW8WpJ8H0YTPyy/sZSRWN0WIMKOjyiG0Yrc1J6qxeQ/4RD+lHXpXlKHugqLOJztK4aQ96moFfUCveR1DdIO3I68sf92QRE+48qzwyUKFnH57mdSGSWxemGcOjnD402+HLnK8bhu+e9nvNOyfSeos3sv+O7Jswxl9tOq1z62ECbk2gtTanyM1oHl/Kg0if0zLOVR1PAAaVYJRYtF0Z8MxYF6RcnI4fVujqu8cdgCEgt5Qtctp/qCVBalPlHJmF2K6k6FBFl1mfrv8MS/3zSiLMiNyKZ2gBoO21mBb+w6H6wulCPU2LhDxQebp1XOw4T4N6VOe+FbTIyM6ooDDt2/y5Tz7ydJEeV8Zil2BLZmngFJ2Y8q6Ug/K2BxNZtvf1YwxedWW1hh6v/3CQ1IEMFfV9PsoZCO8n05V7NwKOFZ8qQCqLYU+66Z6Hnua223LFgjocGMEPjmEVdUzgyS6eYkMOiKu0E45DuTvBkN6wvt1AEdcWo7i22ofra+E1XvAwKEijuwEGU137VhbsPAXjqufjRg/dSmfDLq3ci+GT7NO2vsd7oywLsDodoxPJESkE/DPfH1wgGTp8MjUT3RysYQMIx18zelNzZDbg/wxLZimwuDnxjHTmYq0K+m8IktxeVZYjJiXPSSSrB7Py+6rzEaxVnyw/7qz8lm9q1aN0TE1Dhko8ZoW+WzD+fs/drdX0L+CdwTLdNesxchhD5scYbOYnK0uIopWe29BycAmLVBnVG7S00QlXMP1+v7pmLVwzhwmYz7eNih0OUHSWGTbK9m6gj7vJ6Zu/PaHmj85qeq4f3HshIq22KxNI00vRy4+BnDEmTYOKAKajG8NpIpob1JsDipkftvKts6cbfTncKos/TGWuhKzzxZy51cn9VlEwKM6mL/nfN3k77BrqoXIK/fNERw5S4zZe5W47TMMrSWnfzykVweZa80gjxXXa7A5t0IDDPn9o+CO32Sv2c6O8DNYz8aDO0p7PHFKwWCGE0kP6ANci7+8X72L7Wc5Lhx6jQ8aBBDeA+wNhi1ItDnKn8pqkOxlgtx7Azg6DDv6AYxWKyERzaZuvsF2tGYgGSGWgr4p/P1B3Zk7YGXg5lhEUvHocus7iL8ULZoZq6D1An+T5K3GWdzhfSwawWgZoF2687Irf0AU7yE3zbzPQ3TRxeU6tyZrO0EVtbrvEir1WrhxuS7xnKvOiSANB6ik8OfVu3hdG94svx30h5PG30xQeUs2ZHALYj4VjFwVCxp27+Loc2268fzt6kuJZd1pAoQ+YchHQyQ6KW531Jf0uAgPNGWYI/jEkPw+DcibImneYLjuF62ALDEXwnCdoPNhPnttFf6LPfBrgq5mAXrLENiSBp/XgYmgECE0s+YvD+66W07nNsIolYND3CspNVSM17k3UtmFNLrm+Go21BXdvgD0zPu8A6N6ZvGdiVFY4FKl48hwNtT99yax6/mEbdEZt510IWKdOH0+WylyjaRgs2a7OYYaRUhuCnqnDP0US6ae6IWFa8m6k3BR2KSv6igMkopiFDxxJjZeEJ4Oxx5M9UxFKDEA43psWtHOovLAUFJgNG/rb7M5yQAAZaNsQiF+M5CR6oVZoh9wb/ZE+xf3QRxaXxkG7/Ks0kfplrnXO1aIAvqrYrq/Mrj1fKpZ3NpbisXg0U0G/j6nKKE28lGR9F6SOeHKCNV+TYphyXRwS/yU2VEKQxpR2AbQ0yoQFvydoSed7PD9MWzv2AbbGflLLPY8u02ao+xB1ubdRysM3nMzl/5nKtpqruvrhbno3Dh/hBRELHsba9JWwy9ezbewjcSkVDaEUxguYScbO2uzlQzPPQ82srtLI99pYIhbKbfqsgD97CQZg0G/h7uYVQv2WJxdhqC2Jewp0Xnm+YQEwJt6IG4QJVauvQVBtsk8gCa66OfpFIpOZMKYnikYpG29u3FQ+Yr+f2BRgT9xpXL5S3EQ7RSfOtodzctkovtXS5D5MmEIXDdc2DPVkorBrsmoiUqhuIFfZ6HQe6V5R1aeg271ic/dKLEiy/W/6+AVQJJkMYPh2m5paWzvQGlQU/o4Wn08gEx6vpKiRi1Bfn6UzUxCl6Bzmr3V9j62YlquFZcuzJr4bK5ZzzOS92OPlf8xQDsEbxVOQLnaBnMSpSKxaCOaHUT18+WD7nQAwbUu+hvxUblJnqil3spKr7PTjoL6kIsgeFPNOSb/TW8b2EtP0bfPtGAkOzRDFddQ5gi8Ec5kOA+RejaNfJoDFdJ3REbjjvkebo4epqp7zkx7a0PpFhfm1Io9EZzQedcjF7rF61Ncl1Gyb+1ptIQwQ2mSjQ8aBBHOA+wNhDVsdhC385tuVuOt2jQYpYC6X57MjrGPby5muu/bCcFUtX4SJOzzpUx0RuID8nRT5DYc3jaUwUc+hI9CbpSzXbmsomImNP3jzx/H3aakrQl2xlOc89Xjs4tL7N2cWUVTorcFbuaQUCRPVJ/614NCzvVaw9lqDqlLwFGu59zwBZbcF+6dLfQfHWSnBH3Ka/pz8lNY5XNvR0Vuzg6WxoEwmOHcWF4GUVd3fy/+ejPB2Fhyb7Bl5g+i0sPPu6LXS7AcESnF6/2D+O6g+nuJ/vZUK6vD73OM4PQx+oz5twyPpE7wMp9aSI9KQ0k0hZl7gHu0+Aagg06XmpDAJrXAkdUvX22lvZrFi2xziwA1iG9OKWBrrB2kyQdnidnPncCAoneVWhwVx/QLJ8LnrAbFNNr0CvXvSALUyvBhQx1uJeLBVl2A+THvXvoNqqC5K3ibQvArp/tUTNqXBHKAUKLHceErFHDjsupr3+GPALW9D9GV4TYLzSSVNYeO25Psdx+euCfMVse0Vwi7SXC/Q85USIXzOxTGESYZNlYcPSWBfKmMTojJ1zalBh/3ZYGICL+UvBSRPqpl/zKHEVoUhZ3zEumfVv8Qd29RUL7R5v8DT9XJlJx30PwGTTZW/eZP5NERNrc2Zg46uaTQftfRYvixMfZBkGFiYdtwjYPC5XpMR45838n1/yzpe/TioLfcMBVE5Kmyy7mmMOyizOOwyxPryo3yhJtqxYQEZdIEzdQKF9KMG0B3TJ9UcyWqdwa0WmFQFB6QzYta71rS3Snt/IkEvBJjF3ExzSqsA3SO9oMkUS7vRbCOc2M6b4xTsx7008y6bpIwVMqYrc4LLHAyW2OkjpMkhYC/ixAsI1pMEJf2kJTc0BeChdLdYd/AvrboJ7JvggnmA0qp49/4TN6r7xkt3IpcM4LZo6uL+KpJe/QfcJwlaVj34j/0+UZ10Dbg+YJ4ruStI58B69g8+HZ3AJ4vvn6JlZtIWcuapSpwIX7C22nH4lLYpJslPFG4BWkhpd7spfAczOYyALx6sNOUh4vmE90UI7TDqToi7y54x4ytehaZ5iAZyu0hTclIdHHvy01zntQp0RbcnqU7gnfyBBjED6DUAJ5vAWLUvV/4iJgH/P3JcQSt6c6VajN2baHMp7HlxWn98bSolDRHzRrm1bE+OygKWuWLGJ+zuYrHW8f+p6oJN2UEts81PZ1JL8EWyhSwnPXl2dNOfhkYmqlClr2dSVVffBPyzieRSVOq0rIdIzeeDCJMdxMvat7AsDFpbhlU4Pw2jQ8aBBK+A+wNeyHr+MkyP9clJXdvC7LsLr2gbv1LznUvmZjtZDISUgKsmry656pZ0/M2xoo1ZOMabriSwGAKPkxNnHOWGb+tmaJnEz2d6LD0iWDVRKYWyDWkO2wIAzeSxcpZWty+cmFzQMD0YjAKr9wPFV28CdshzTDHFNmSAZMZFaLWQxIrdmNFIxIt4A0UXuFa7wDqZ//B6icQAp9eNtkhSuCRBlYNN5gRxR4wlwI0tsYDmqXr/M6zmV1lGfPxmctN8xkbWU0X88KRojuy96n0Uau7E9MEgu2F8UHMnToHvtTHb3E6S0vwyJa9v+2dTrhT2HP0enXNfqE+Q0UQJkvHyJU9MSIQohxPIHCbE+aTydQ3MBD64J2torkldfPpr5P2+AEu1Ivu0SdN1haZHGzK5HTGrKIi41XIfFKaHhBbrkQIYADMIG2EgZHzFMs3I8GUCYwViiF3OMXXoNIPtY1OA+jW5WUHNiwuInsKV3bKMmcTTpIxtfR0wdO9WAsrdaQ4sllNVYVIF9WjJclhgsc1B425jFdfibUVGIhsCNvYRhzt6eIpI87VelkZz4rngw5cEFj6nYlAmsqo1HM4LbLC8Q8txH7PrUxeIw4H3RUZEk3Wnok2qHvyLBn6FcUcZnc5VUQNQbMOLRh5rlPMaH/JLvv/UgKxrgDRYiR8ohM5ju7hOerpshCwESrQGoCJ2/PuPJckl1CDLitmw6RNklvVnlKV+dMIFKHhqB9lra77cLrq6kEeH9ngYz4ejJhcMsD3wCcEzcZBFNu5Vxk+cGJfMOIb8IfxYY3kXEZ65P3J+AtSIHzCaQNTAYXqxMDikLR+3Dl56KyIZYAxZGzrUijyoPtFQmu4vYSBsyZxxN2gp+QvPOph8U+TLE4fYuXuUPKbbnmwDy4JU35klM01vAiE9y0ZSavf3puvNw2oP+cseq8bGKNkOc7fHOgmtW/27x1Qv5nQeOBkiZ/9ElDwNgTVOggXdEOTxqTFiCTRUOzhIuS80jwphcmkRrfzo6yE8l78Z46xoFHEsJFZ0rkrtZwIEvOUGppx2Br0y7MiH92pOl42dDmmL6LohoVDycCbZHmMYieN0KrJzQW1DzYWGGfT9FKK9sX4fToGNlDnNi2Yux+jNFcAf65AbN7zkL/0ZwtjDqXlBr0xR3n9l39za7QRoXolx+mtQous/YbWtqFoZgg4s85VwWtFpJN/9IlUdt70ODXYFFPMieq5UYHDg0FUevod0JI480r6WlFLdQ5cYaTUMIfaAnW4xxHKlkOKbHqXGAzlRbVGjQ8aBBOuA+wNgNNkF4eSwqB184p/h/KwUZqbVu7eTLE4xptA5FtzgVSeqrdZeX8Nn8q78KV4NaSCtEN6LKYxHyyvIXlMhr4Bg2qeey79YeCbuXPwiIikWyyjr2hthXVEHU9WPCU/aTIQf17w67Mgh/ykhcoOTXU5CkyyxOT5Z5r0cfkA1fR/IYXIHsMAKLmsNyk05i0lh2XAcwNgNg0tmD0LYxG84PreXgFuKE2nf+sclaRkvLiNaHjX2GV0TEkZXmUo73MQ6X9C+cLmkdLiZWp/l6xeJF7oZnCOZ+H+26JRWtFo2Ko+I3uTpGDYFiJ8bTDXuvx+s0f+9BQ2DqVPuE52fs19YVVSD5EawIiSUk44tRApfC2Gs+70g7qRSl6j9+B3J9Hov1R1p5nxfR42F5ONhhjZKqvmr4CNoExkfyZj+eroiTgYRBGEbifUeievsLd37PLaY6z5gtiKCSvzDVtRT2NbUwuaPp2MIYeCymGdkfd8k9AmoNeeifXDoWwR+zAh9lnjBVC/wJUfinsqglP42kknp5eBlDHMJZP3fQMRB8+NCbXyb8iI/OWjX5PnGMFPyqkSqlicn0PMtoUYpfc6IkZ1uZJxXBh6Ld437OhLILgCdoImRTwG+x3ZhFaU5MQhbqz2AoxtnnOS7enkb493msRtGZwYnYdGH+eEvrGUy7Zg0+jGEEUPd110r5gcddt8ywxtvHGrZAcAi5oxmYtcCmEuqt5H4WZwTpmmpFTekVUIPGKC6NegvYf1ZE3MHmLgDewkEcgQB/HKDAUw5fucabPDqI2qzTD/golcATj6cu6AVsdMU9t5saWQtf76rPQ7Fa+ZkxkcS8G2y/S7eGzfJZtGL2aNeYC/861HEfYCItllVZxpWbRAMMh/vb9GZfF4tC7E/IIQJKO1eijfky5c4p2Mn7hLPIKysboam5NJWiNDql39X9ykGRz4pgkmlcbdGAhhHLy2N/xr6trVSa0Ml/76czEsWnRKrPHPZ5WjvvYgXUdu1p5eZOIS4CNKDa9SvtLnnhm13t1RDPAVyOZujBs9ECJjSG43axM1vm4G41WAXgg0MlWWs9oGdM1CQMfupVFrJ4Ij5DAWl0qot5msVIu8pOpe25Gx2ZOPp3LGsZq8hrA7Azv4QJR21PLCkSWUbMHFUOk4Imy5gAJsJW7MR68f1h3sCBrEsvbXQl+EvfOkwKqas2w3BSm8+qRb0+t/cmZh/5u0sew8kKHmNtetplFWp8Xl2QoIkAW6I1y5PVcfEnUKcMPSpiOHEI+qsQNJ1jcAUIhqjQ8aBBSeA+wNgbclOH+C7wxGrmaF4ecM/t3irHDc7PP7K3aQSL779H1D5o4svCm+7i9ngtysRNyO9yv0CBivadQt48uK6XDhGWZflEXfbqjOntrleKrzxtsnQShpZHJApVERVs4/+/q6j2ceXWLxaSaioOETmKZSPG82a5lzBcMEGOiKJBxrLZhU+3IYtA/O3cI4skWY5Ts/qEQvzCzBani5jEzOHF7AK0QxzzLA7xZYEWySadnrS+RNkcUOR+MPvfo2SRPrlsH4lD1ljbzOMktcPLJkegyAOWGvVxZTboZAd+co80d9lZb4qyFtDyz14CNpHDquLs2aQxyDN7WSJJn5yr0AItWowFgox3WuOKaJUzSuuT1J/RPmd1lsB5J96RhC/4QaRNe8zRQZPJXHTpUcdsP0vDqWYjp6UZ1Pt/pjsK0MxU8G6+mGCBC7bgcLAsnklbGWTriVue0RSEwhv2GlJ5INQNOlYOqE1Qs+h0J0nwGBcOhvmM8KLtFl2fcxsYV6tN0DjAQkCsV3u++ZiX4Kwt12SFBu1VD6nPlwdvZer1GpDiLPpxZztNunSvSNceKKbr8PAR9XY5J6usPFhd1nrgQ5duKUKAegIwaaxIfj5OyccRVAsqzThIJi7eWgp58Dvr5X0qNCDFsadJ7RxOTwz55M4/RB2JNOrQQzgU1gU+mf2zVfrAO3AaB02jeBcsGJzbY946YQoGDacIpUEs1tUBUcBUPmS7iAXq6iS9T4j5n7cMoIewLpqcBl0MaWDtaZPxmSDz+r1yYEB+lL3YMk8Unu0Lkr79qHqx5amvWqWo8xODrutAjquvXuXBZOuXQJrgmXxaIxCsqyv8XOuCDyl+5Q0xUwfYRrSvHdGeVfrGTEnLcefMDocJRvYGc5FG8vkdNLg3nCuKldNIu8oUUt35eXj3Uy4PmntUA6Cuq8wbZYUa5ycTiY11cRygExk/MyyXn6rGXUae5MT3XfvyqicUkeQupUNJHghydc1KnvJgaZNrIY96uYP3KXr7bF6yzh9kKaWE3RHSBjGYIhpw+bwlaqzKNrQ84P7XsMaC/huXuZ3oja2QQa2LDs5VfP951BFWF9C3mDkIKJlFHjM3eRox2DLuR5r96Jl8niDwxHzyOrlHxy0FPY8ue3iYxhuPGU1+EOHf2IQsVG0TCkr7F/tknwPTlVb3/S/MMcnNYjtjn1WrFq+ZW1iYcTWhVqbGIO0C/XCcHWHXWdgQCOqn2fGCxxonqxZ86o6FHyWDMrGzNa03hGH6yIkt/sKFOedLKhad4fD282jQ8aBBWOA+wNgayzko0Y3nE6wHaDbYA9xvB4L9j37J8ggXfjA3wkx8ZNCMNVOaecOsVBgAEZWvALWM93C54gQ+HnElLlaEt0gyJGvtaYpYEEDmNh4JFroO5z7HkHnno1cfnMiMdeeIGH188IWA/gCd+xAyexcqLRv5h7h2xleFuTNPoIBwOpdi+MXbpgxRMCiN53APTkf7L0+Wp8Sf48uULzJD+T1WIR4+nTyZFLXIbgdAQ3CiIDOzx4MBIXZI4JJfS5RroynWTbzGH7C1fvqsIZdzzmjLRCtHr3ZSFAcP2HsmP+Oq5FB/Ds/1X1wGlpoeoz2w2wE4a4OszKxuTFIDARIbL+3OIgeBqfDLBov4P4zTUYNcw8EKv5SSE415PXLqHum3bNW6+zWI/K9URFlg29wSzz0qHxi5i9r1G6eiokMZmRCq1qDdWECdnNFcl6ZvCGaO614gwIx9VUvy6wiR5HqNbcbeeUlyYvio4pvNnR5LyI7YtlsXdGg0U9XVJiV98JT8SKIG7VyInUic9Kh5iosJdLH2VABhH//RK334UgWDFL0VN07aVEc8beijyFhITAHQ1fL8YRb0CyfsSgsEcy80eQDnc+N3iAMLvOX3oyAfaPqAwRyOUbZpryVzwG/mUTUMVVpFshqIpy+sLNQgRp7+WM5cXIZythQSy0yYaTlXib3PIFSzw2Q8SCKe7gtpGvz+zF6NsDYmn1odn8V2u6mTpnpRIKZXGKTNKqbq7yHjtK/CGH6xccxXRqOsyEjSRq4CULAV5/SACdRvQ1BY+81YC8wH1sTosusQWZOwHO8sXHhv5M+v3SAYEJ9oEDH8bntuI+u3xE8qhpIx9UipclsmT6TaDiXYQKKhCCXaNkR2Gcq/mSW8McRACy+NT+LiKgLK2De1/AHP0R5RktbVnMcjMcMVrqJO7U9sLMsSdmGRoa6bHMXi5Ol7bj7XgL16nhZm+g0jnGa1buk0d/K2HruotzWbrJTLsOGS7RRI3sHWBo8bNtOLCXlH2PawRBqjfCoxSUsWUv1GnEa74/FOmXNy+k9lx8egbKg0PNku1VaNGfKvw446L7TsBliWJcsvkFGwPBcK16c9MWBv0b4DmHqKP+ike/1jjrqwi0qMB9B9LDryL68QMYmDFwgH6rIEYPV79PH6oSdrXEmlvtKJprl+1XNOVILN3EjuaFXLTlqajF3Jx3+NJib42c9v5/Hy9owyZ345+o4/XqWbZGMxinJuYT64k3bP9GeFN3bILSWHUBz8VxYFXJD15fz0kiaKzeHmYNZEQejQ8aBBZ+A+wNhB4EpJv+METb1kIyhZwTumO8sq9d869jIO0c89FdemBMmSqPkhC3VipFbxteH1gvwSw4NJXty6EJr9nsYsrwXdMPhvszdhRp0AvqhE1spkSOKT2leztXvmnmd7q1m7rA19TmywfxWwnWsBdnbgMneBtjLoa3htY/3A5HlFh5LCzZGnjtccw01+sSLNf0HZZHVITZYXT3uFPNe0IWdx2wyjdZG6obbfGZ0KoVOl762642dCbgZyTvKyc5Kx3ZwnDgVRPvMkDuIE/1zM/gNaP3VRvxKRSoDy21/y14kdsh6+4WKxfPkzwPDY5F8kVJBB0m9Wal67MpKJQMKNA09THiWBLiRn0TwhBqLCSDM7epm8seile9yFt/vjnfWivU3Rb+KQ29Jk+Ln7mgeV9ZfB5ml6Q/bqM1hX5tQ4v0zpB5zq2A0r3bslruAr1eKO1fWb/n0jNDCs/JbrpphbFS9n5EkC5hx5TZdHAcJKke26Y36BIAJT6WyNZFGFBMghHIH88rmzvN3k25cjjNhShhyBriWbOSuW0T2X94Km8NKHkI79aly4FgtVOJnP3Tfe488lIMHZTnzCS/P4AzvrvSrqwLtfkzwgrijcJz7JHBM8a8cLvE6FjW9gT25tiWZnVLtAtwZTFcnGJcdNrrIrZ+AnZEynJzFesFSR4l1q6vjW9h5i2z/ZxuguKNBdfI91dypvrPdPT13Yv3Q1uR7WPhxCq5DbB+LRqXYa88eXvPyDnJj4pDAielHG50dtsvBBt7UWQcTFCql5+nMhiQcmWzcI2F5AuBQ2MlE+S7uYuPQjeli5p1PueOlfYhEuuKfrfmEpcAcgs1+3HT/qluF16ohXpH0YG4M0XTF2u+jZUozfGoyom5KN0BXJQFNDL11NOzbu01pU2t3HYYAo3NIFhf06OhwQ43xloUSRRD5NKuKw6ipAwdnbc8bTivIZUz0Ctn9xcgtGVPBVDt1k/qeKn+r5PAamNkaPtmbZ020Qse0Xf6Hu2+LbQdWAUcu35z3dAvXd1u41D234JxnyphmRU7zUfX6DM1RrIHNPQ9RMsu4Xk4rGGlysGjS7ha3D6rtaXQ2gAJKTwovFJI4Zip0EhStAyv5J8lB6Y/yOkmxP4tdTG2wOw0DtjOrkX625om9+skMb2mXCcKLS9BdqrJirBfVLqAxIjCiCnmWYzMP896ZiKe7NFUbERuxwRSusY+CIRUERjFvtNGpeLQaehic4WJx5U631yNxEbNU3wd6PJhzitYD13XKiKwfGjONGKpbixggHtOjQ8aBBduA+wNgbcCqfDUdgqPvrdS/qgDcgJHCsoZLSHynEETKgTrjZpW0coAr6fY0pfC4u8YT17/hm5zkQGxeBcaimoTb28xAUEn3EeRd06YFjiLcFZVlcLe1T94ptkZcm5wntuGbaZJb56hKuhCWLU5aveYZ0lnmZAOSEg2ecNSrFGa6bOLHtvBb1KuYxSVrC+tpHzo5HJy6U9ouEhzaFXppHvlz0crEuKEbQ23Z1TwS0cu4ziCZCoYFcpF+Dq5LbRtAJmp8DDbUdqPdRmgf/PDgpdQTyuFl291aSC6s0xE8gWfORRjEwfIvEF9BPUbq8ScRQktJbru4fRnHYOnWMMzdeoPd0z1mUbsK7fUSVBXBvTsm8h3T7ny49EiJKuqEcKiaAwaSZ56oyru3hTl9HDEA8/NlIz0wXVlAtEbbxyscSqM94RHscmEhHEJJPIBSUPMTi5sB6KNc0GDk0fHoaue/+1jtoE7bHif1JbTkw78f82wqNrWoavFFem567YCc1FFNjBjvWJ7OQLxz7FevYMPVHEw6cTvW7kZ2Zo5q0D72V2Z/ItRix7BlenG7UZ/cfwAHSe0965I1vE34fjHrxQ/XJE7NResVyre6SvDmojVPdEZtzAN43DwHk8OZKPQrrKy5KI2G5yEeRFg9oiLN9L+6JCFa0n0FzB1thQSANVobND93UWaw9iqtwd8u6KGmOEICxOJQ7zUFEDw+L6ccnCu2NK9ukg7I5oRwPe3ItYcJtur3RK1yxicqB4E33GcJ3czoJqxHC/gd+15MrUNihfFIvbSMXIzpwF05xzMb9hltxqkPhxjP6gAeHOhxwXog5ideXHDmzCTRWHPxdKe0Ky61OWsR+zQaYSBgTpTV8nXjQjkoY77U4Xj+agwzSMToDdm893i+NNfD3Glm0ciPwC+/GKt5tUTAYQ413/1gLQx3/JotVX92f54VJILZSxW5DcMM+uEteP77BejfroBQsOY367UjYctYKdLBz0wYlK3lruNnNjrkvkKAgefpQSMFpszOeSFjRrYbJ0bDktR4C6jpoxrmZJipqcbBYqqmlEgMGQ15oGNleEMDE7XSPH0VSztyT+eOeYtB/nR6IW1ePkvZfKAv5JglD9sAKvG+bNq6TBb/wL2GY1IbpAAuxkV3Mxns/s1YDU0bHfJUdQLSk6wrEnInMoPSggFRWVhrb7jh8otJJIhneSywtXSRs0CyoUQWLrQKipw/8sKbN6tcOpL8DwiMro5rpmX4GZAmOLTpYj6W77Vg/lNI57jvPMAsGrpniRyaDJWjQ8aBBheA+wNhH9CcU8XxbL5ucCey8qYd8WMwFHj/dOG1Eabu40G3iuv++J6WTFaWNXc7c8UPstrmKEYsO9GnmnrzAD6wS5PXezV9Savcw1S42nDsVzuo+YUIshz+uJoEGduiXD2k8cP/jqj/aSgh8RZEXc51HaRLxP1CYCu54CiELhwQWe9K/xs1LKi2PaABglpW2Kqf1yiyNr7xkxmT7ceDmdFCC1D2um2FrUvzozSQ9GQJePz422+qSfUex4AQVplpPTbLjoe45vGwamTjHUBBsqY4rJy51LFm6cdhmkB8h3C+N/qfxxoMAlHrV0q6+zKzL4pWMi36CUteEIAZoLYuyJC6C6ziBnOtXpis7AQO+KDGSlB/WJyv4pAglJAxnHAP2b01hBVVxB7Tl97EHPhTXaNUzyDKRsxv+J6bhxogWzCf5ECB5mECbaay91yI/h9RypQhQ/QXjJUcr+8/t42j/Ar6GjqfzIRb8O1LBE4LFV7UX/WojOd94n59Q0BUCMordueTcFd7DquuYcUytXiO9Xzq+w5PjLhyhmRyFMpxelvaoO5Cdu97QwIP+bjpYyKFdJKcl6JPNFJcCvCk/V9VPAmvutK2DAlaCpTdgK7swjfHJ9LYuZiLH3pMp+Q0Argp3NebsErrf2++H/TA/AVvGe2PeobqpOTLK9wd1etnKKmcECcLHcDqam03xE2oRWFwBPfbpVz5gSEp2pt4Hxqqmy9KfLGwXAnuNZsVIa9Yd8QXow/X08t0T208uOgR+tf1oKdAoVb5xaF3A3IKtn/l+vPXFLaDCDSGCG/71MW6TbW+9sAL6pdlo1/Ae39dEEKPRHwqe50EuqHWmg3HmVynQ52Jo4kEYQJtpb7kyach4dD7bS0Axo61J3XIAvvXWiEvztI1kS32eveEBN17miWwvYFsSVcim0NY4/D1368YYHIoon6hxC6FgWgT3OHhVtSXLm5x7R4Z3ioVJJmgIHeHBnAElu24t6EcBQHAChc7NQPHlGu3IYDX7YfXJO7nAfgSbaTfopasipHi+mqpovubO7Sbk8PL/TWfPs2v1ncw0tPZwkC3M9aJY6weJUdfbWfj0ctW88ozU7UyfVCYKpXi0w2UKBsNMApFcUGOdljr4EAMGRfQvG0KVCzkeOhjE/0oiJH0ZdPgJ2m/wEkMu7H3qm/M09ck6VKc7G3tFRGSz4f0PC0xBdkznqpEsekAayhSDlwrVpePLKe6I+ru4r46paQEzeZROH211AzYIMcvjhzwIaEuBt2e2ugvT6Cc/HeneZ93fJWjQ8aBBlOA+wNgPw1lq6OignEtIOkMtih5kxPeBXTsyCRN/t1RSLw5X+cgJ1ebYD3pPm8d4XlEjxqus/bx0337cU0+HHb/f23KH2fj1xT+5oUug5Z8txktbDTvba4de9Jk817FVBHRHleMiHnVo8nIUto9UaoP7BQUl85GygD6OIFKVCkd3hO4Ovdh9rMTS5G7to+lv22RyJ2XDeWZiwfJq05/szIuf9fykAV8ZIeuUWvj20b/EyTQ9UivpLV2qgJsPd7ByWjh9TAvjBdmSspRqarRxHkB+W7b3IxUOjC/6Ido0ZM9P+KP1+xu3tLKmKeY/JUJs87ryz0CecUyGDPiO6WIFrpGI/LjEAEqiGCn9DKaLTbR90dbZbT0GyZFmt8aH68WFadOVmRgMWpnSb7Zll23P0Urs9KHGiRJ9M/saJp8YPLuBjWrkmA0nG+99pu9pAy/bqfaQaLj38bl1X/ONlCne+VV1iLGp8GLUHLLz+0EhnibbI9PMGzutx1RfVIdenzH2ZCA1WmnugSo0nSVNSXPoRGxggHUuhH/kTpp1Ptca+/6Zu/nUufAA6/mV6Cug25pRLkUWS66r4DjyAf83leHMP/hKrMVBhvEcW4QqErrO1dUESiXv//EoiqLZrwZMI1l1VkbX6OBiRoNREgQBWUgO5gXd6lg2lTv7JMc2SAiyFs5VQsnF0ivyunl5b0l1N4VkFsN4i5Q6pgweaz6sO1hxjA/AioCfj3Cw/fScaV0KqX3//5BuLyG9mSTexNuqVCPvjs7qa3aQp62fMN8bbSkFrzjOkCTKXrRermFswopEhBk0ALSefjPXNeJ+wGPQcfevtcnc0oouRVWuHtEKwp6I414WxIHYC5IRIN+dA0JGQXKZoS1uEG06SBpJ36QjelQHT6NGd+gyYW6BDaEANOs8xWEEDv157dVK7MAw40ozKFo9XCW8QQHqRbDuXCydir3B2hUWxTyfPsWrRSm6EzdDg9UftbIdpv4hXnFRR3ZxFSAHnf7qjCj44ErufydHQjxDDvm3JeM8s7MTHfK4tL3zzI8n3DUwOv0oStNNVpDyebVojAy9XPNFfWZB7m+wiBXtw4Uvp/dk6ik1P6IwnEL8z8gHcCCuXbkz8/VuaXn+LnqhJ8y4Iq3fDpoLwNmlvG4M+kHdoNiehF+aU29dCqtIZARaXled9SPOsB+zT4tVm0XAH0H23MUyOMzccPU1v/mlEHgwbKpsjG+4jT2LEKldo/LBpHxjLgWz1PMQVLYLs/9rxfxLuU+D5AFuYEZ7pwVFM7MLEqjQ8aBBo+A+wNhIHd0C3Ig4T5FKGnvyjSoA4zbegx3ew8P7WoSD0KT5v4s4EzcOHLMKKnnH34aoekHurYNiqwbY2qPCdO7TE9ICB+nQ0Rb9iDwEYRpnknCAAyf4uXzmKs3Z8k2CMjlEEtRs9TqLLGuyTOInubaiGYHuH8fkLBHfdomnFVvZ2w4kyYW6XuTayaS7X6/WU5KzpHZr2FXGGn9L0oetMoO1xJlpBQBIftspYgX570ZKnTxjFVKCPCF88UFXhL5cnnu/Qkjj5HoZ4AuNharUb5YS/RUt/ttwNSfGo1XoDY3rGIiN6mx3vNC9LfG2+9SWikRb2m+ddJW765hmDsgY+27YjH8+Av/E6+TlNfw//SmYxSpV+BjNWE9bIt73y/woXzkYJnoVIOT/qeLJPpZhuCkCJWbor1CRWshNZxHL2A0aLzOvWEbAej2bCglujwV2nYDKyVzl5vvUqaUsewf18+OWkwaa+icSfn5rN3BJhuUCUo3Rr8pms8oIDKyMzQaZjKEO/U4yQ6Z6djhLC2mZeTa3mOEUfYI0bPZqvmxa0lQ0jF1PBS+LNysFQg/s+KBAHOENieSHkX36Nj/g+7BAuwiyM6zHNFaGkXI8lTCQKqrJJk+qYHNkCLjhO/W0GmNfUB7HjTj0dEPqIDEjFgm6EixnIdfShoMvYq32AdgLIKNJxJ/O+yEhhK5kLDuRhnLeE1ZWfnb7SwLS0zQbtAU00IwhZ2qd2gAcH9rJywvZ5WhPhXC/qADoqpieQPfmRl44+ABz6Em3WhebSFzcfYEV5cRkf+9EVlCcskoADTWiwvFX+n8WSWYhIpCuqv4gfAYYlj/L/4aSceUQTpZmQ+wqHhjnRU8YGsdK9svz0eri+gdk1XCDregNy6FECsZxu0l5FRx903WIVTWiLUN+qR70Nq47O0zyezhwOTx3tcYeuWuars0kNvztmj26ZufEGKGa6zPLp/nzgDInPRT0qe265izO8XcnAzSNkmuZD13nWsRPYDaI/39zQGvluaFjET2b0ooLuv41R1ZV5Qb+ohYSUr5tpQ7rzblXvqUH5QCCKRsAeXmQ+JUeoSshEwtROWZZZTjuTCATMZUkvXSFpA0ncoLzhRxgHff5DyZwsK6oA4kpWDhaamitjIqyPzk4ugV5RaG9Si7AWf1k1brIkpS0zwrYpAtnKFsCIYtBGROAy5uKpmlyPGvCHKHjEZdFDtEYAAbrD+/1faVF+NjwR01Cl859cg3DXDk2vnmpCrKk8YbSkpu7ZHJScv1uGKuPGIj+psNGbSjQ8aBBsuA+wNhNeokyeT3g4YPzK3gg8d6MEf4g/yhseaEVebrIHxgfUe5UFKzHsXkjfiY6ExrXgDmx5dVIMs096nZm9PI+au4gKK78QxLM9Gqx4phzLdAXkQ0DeilLTQ4MAsXqm/1tC4q+F5yUSUsjFT/OSwcUbEWhuzDXOh237PSWnldr4aHS6whfrFOzNSC7m8a76DlulP9P+RHy2BtQJo5SOkM5X50HG5tIWo1AmqIjBgjlBcTDIbAI+dBZM9oCV52hryd70Gqi3ca8c3Js9JDyo+QpPPq/QOMLdLTkK5N8608PI4cSk8TVYTkhpH5aldJa6QAjm7L5vDdHfEmzsWoCfKzyE8SaDMUb1pDp6NfTuvkqZJw7Q1QHuver3pfwBus1yTavrJOlrAr2I6zUZA0XIO+ibojlCywzQJ0UgsNYvw+SNdA9mECkmVZsmg7EZMuuOMfk6jTU7oA9/3kNUvcqydpcZ+S2SL0LeIfdRnoHQcIj3BBEHSYHJq+5eQeBu7PQ1jDzZNa/qKlx0IhXBuA+BNu4XbkxhzEFQ4crMZ07nS20jPe0yIITI2oJBQQo+LkVBHsQ7zeiwB9sXncSt6l2eZr2QUt32by0ZoivHs98U/JNu56bYzupG3xMSbzUBsKq68IUFQzw23OClrOFHvzAPQkzyYGfw94O9wdTfBQGOoKj5yLycUbbuMeMwdj98ZNLsh/oF8fOxaZZ2D5uK2aWil20j7Jpt+/RGHqb3YRKelpY3uQZ6XbC98fFdj81VbkVg1K2yi2tkXRzVclN9r/4UD63vQ/eanRjeFxmLjnS3bPYYR+bsLm+YH0MQ5vp6t077odEXgphitvdRWBGklGY24bIB9aYDSvnKzZiXKULccXZxrEcfjhmhJ+V85WNcwu07lzjXPwnaBUvWswYbIeI6LCSTzE4oX1IHQ5mJKoCoGZvD8Z4IYTID66zr31GbnQ8dB26krJEp560r9ZS+oxfb4RMmR7/Xj1J8rC1uGwWip9zDjVhjfYtlSDR5Dt6gBPc1CfvkgJ+2IA9qif42fXyUS86tdR9dtxASFuE5uEVAwNRBf87NZlQsTgG5Boh6LI9pJnGADF0AtQZLbWMQGlUbe3i2USKnA/FtxVFSsOC6wGRyyVp+PZl2S6UkmrHOYfrZewhyR9mAEZawYkiuuysmqeMjjQDyb3XRVtobfBqTtg4AiedqX++PqFxXFwhlRjBLG+zPyL1bN6LOFVEbB2BtGIkQWaYFIM1SvfOo6q7ze78MqTqe+SovgaZKgaK112otSrExCjQ8aBBweA+wNhBe0AMJu/6k8Cr8TVL4f5YE0h4rrICxCPhMWgO7kVbF5PlRvuHz1qPtxMCMIzH22YQTVda0huu8oNBITibTf4mflFgvB7qXwXYGArx84z416AeZGHmuUXgldHpucdHzPQbGf725F6dnzCIxX/UJYM4eLs61N4z58w3iQ4UQoK7bPQQ3F9zgy4TdO4wwpKZjwQ0wvNyqxvYpwxxodUdxB7rwVEitdNgmgGBAQyNowMPSQpuiKuFZSj5fqbn0dyqi7IGIa/ylzMQfzDFULG9Owu+ESrOQPLELt2ibbE7K2LuGwCCkkOKrS/gJQaoyuz9l/YAXWvnF0+BR7xJ8Ez7o+ib3QELm38FeAZC5EcV2jz6vguvPc7SJJ8/J7Y6o6DibK+JH88cZy1utG4XCM1TVgnIVaZKxQAMboyiQCxEGGMzGAt6JZQ6L9z9A3owqmBVj+869xq4aaUlnZk9I5C0ADMhQr7n9pNfothIGO+rpouzd6qkio3is/gEVCHtWplKeftvQ2CiIVkWOLMQbUyHgT+5jplOpPQ0vGlObVLl0yf/35Db3WrvDhLxXEBlS8+D6SLdYQ42CjdSNZJc959WRHH+Op3aLwW+Y+bdN4qy85I8qHXPA4Ncf2BJU1VF1UVWHsCTgaCZjHMkeA765rccBmHd9sWYu22oFHMCIJ6fdfnYru+PzUUZR2IdIED+ysdsgs53lR7V6weXIaEceJUYMxQDgwlTxPbZBrwiDBjVWFSSKg9ZkQTSvSMGUHuVah2z5M60mpVpXi9YgilgquSRBzkiErXh6Jm80LDgHQVMIT/AN4GudtQBVTueJ+zWLcqIlPF2sArGFQeHByUp1WYwds0YQs8oWgCVqF+zjj1/+pS/LErUHgq9haNQkmCAY5l7GEg44PM/z6SybmHWr7ph0LOj5FPrp9Tx0ZrSqwlRnvGd2TdOIRpFSF+PJBTx9ARzaWbuzkADI5HWY1xajDXhTEPdSxTWqCMcRhAlsMc8aOQP7+3wPyB/QE71pxhFoXeVlVjXvLGkzBs6T3EPICU6BdM1mJ33Zv5jgfETq4kFq/bDyPLDTk0yb+xp76VXPpGSCbsiTHBxdl8+NJRH1k7q6f40XuDkcuyrY7rB4y2ohBtKyNqGNUMp3at/GnTh83QYUP60MzjDAkjvyoEXNG3orVGWDQb+k1d1nfA9P8ZXgHyjj+1YabVdfLrp/kP8N/BKerEBkyBdIKYsEEHgvaQTVt47/SrNyxKM/ISiQB7kJ1hUSDOJUIpY8CpO8UfFBdE3wejQ8aBB0OA+wNhAnn5w8/qcFBVeqB5l8bQmcLBAZEIk5X5Sj//o+YsntzcIFphlo5hs+iMjuylL2nrzJB8IqQh3KersTqYrxMLw0o5MCfq5ta6p1f/XzQPRD3bNLv06N7nHPWOMurrBJAr8HkWlrh9LvYezJVmqII38A9gkzwlk1mJpfqSCgDeC0rUObHT1CORZoWgjGGCGxhrC6rixbBtzx/dVBaein/h9XmrLk3cXI8vXlhQSzV4cHOpCxeHsy25VS6/hEr5O3GPcDtCfBF+2NdUEOVEa41U72Lem0//e194kak2HU+b2Stote77hwfP+cANkRLKaa1UAKf6jQ8ZEaBMKbz6Ayi75F7YLxZAKoaEBpOa70wPj3oYHCJMl+WZztrjy8IBcfvNSDErmc3F/QpHDDIcffUsnsiQYzOU4JofhzNs9NWIY2Av/Sn08rWzMBhBrarHz3zJT5kNhJRJR05dFN6RAMrBejMnjZUIIWOfYSrR4/62P2MvgMWmUJmhID/7Cl7SbZh/Vk0oi+nhkb6SgNaEeYLazIYbyItWwah/MQSz8hKSqi6Itb76ck0sgn8SvQsdKuEc6LSjfgXod/cDBuuvk8YZHooIz5f9gZQaoO8O4FdsO5yBo9N/t7ulgWQWAMYY1aXHomxKtvkob88vW0dxIWeAhZfkPzRW6T2JZMW+mMk1t1lkYdCWtP/ROL0p19lEu8VDjTUJ+ydIszGJRccXbIPRhjpnC7ECHygWEm4YtJOFSzHKK6/lLxxpW+ZT/CNeeonf6RRoAuv3K9bMzRjF3rjUIWkk7vDx97PDmXbJzcOhPNZabHwK/Gr4qJ6X4hAWwMW9PzM1vDQgLTC4YZKFLYhtYDA1H8JtouSU9CTAPn0vmVi0rEdsryCkwYf36oOUWo84iDWayh88jDIUmhhO0Wiz6kVRAny4m09jQJTcO6hTcBXYzX9Bnv+CNzq+vkysvbANNtVHr7W/T0syHmeYDPbIyRkm+h7yg0EyS6XYevMT7z78sQeqsnlQ3ro9NbSneY/4dQ6oWCCUmRVoVu/i2vWIVHH8zeyqewUJtA3TJVngK3D+bAwA5Rv95b7kAWQZLDLNwuKToblKknQv39OhsCLQBLM5MtSh8H2qXhb2j+8y3m/1PJ+c0RQiME5rEi2xfDA8M5pY3zQchS0m8UCjh1sn2FQysmC0eBv/30JWbCgfihfO0THCo47frfruSJEGNo9Zrzmi4uOues5dTMj/DoZm3x69DS4pNDDVec9I6vR3CD+xojJRPFGKKGb1CKZACDOjQ8aBB3+A+wNhGwc9ZKcy9olGGpJP5n/ytcDisGxCMw29MvxKeNt45zsUULAcaVmpJ1JEx9pvhqj0v++GYrsbgcXPbD/HQJMLL9JPyziTJTszsTLwWMdK5ZiiiklZ5t0wTbCo3VdzJjoTbnmVxTZu1paE74Am7UkJr8Ukp20MWORepsHx2i7bTEgawIo9dql2V9sDvUlrtLvKj6Jnwq/B5aYT7tr8UdTV7pLAetmFpiba477FyOS1jNrEDgoGFPykrcT/yv4ySAx3TLJ983pMq1NH5BrydLbSqWFPkFbhJQEbKHq6xh9SluJPukvKIrlik5nqvlmRdm+UAZv1Y0cnwJ9kDfvwf2dfQIrfAo2wZ0M2qarFeu2zzr/CdQTUCysKrb8TxkIhp8DOrInGCF1SoY/0Etl7CtRlKijrdSemCxwNG3u1gH7H+2Bqp+BknHFfMqVcfCjeZXwD3leuWC6+L6Kiw04Tch2xt/0Qva4S1RYGuF5EwJbgWES8IS8eOE0pBkUYOuL++6rrHuWt0XX8a3i/fSDO1/ZzvL/wP7gSwiRTy9UydUO5jByRpvulCSRTwztqftIt8C6SIFOB+3JhJyjKWwjbRSLiK2VmLy4+f+3mt2wXWMd+/ydbd1hCH9E2SlkpBuG1ja62ZoxunMMox3d2+qV5OY9pC+tylc8+yCTSwZNGuL+Rn4UdlYazWbY5UCiIisilYyACsJDkaobH7UYzIfKv296fUyQazy4ojX9SwNUOGHSNC+URAma+5JMqUUS9WCwAfE9/oTxlibbHOSdZYJncUV8ztIwf2yACShk2DItEiMsgKAvrkhlhbV4pJkMAYYE3wjxvGhc9NrrTHEzn4muG2bW1Xt07/iyOf3yzzFEHa7bV1L8dv3gMOLb8TPZV4EeRANUd+j4E3CcKatBIq1JoGU8qBTuZIk9C23byz/AbH28rFaYK2+EmIS4A5NzHhLetyiIZ69/S/ge1GSJQJzbePSEuCbpQLnedUSAkgP5Wx3acjy23zyuPqZBkRBe820QFwT8VSJ+odapplcJq8C5DMVHII2ga5eWUMnRvjwSR+kwG4fVsFEpg3FzHgh0p8qV3gIXMlRYpidBJbVUPI/o3XrVKzz/iIaURFEHGEJJvVaohUDJ7UuE4s9OUFN4iiEQISPeBtU/Lu+wttnYQ880zhwygHgkskZjOyFXgGmphuBYT1LR+6cSNlnlInqpO2svMh4X22RcSCTMx6j6xvB0wbcu7Xd8tzG2Cs6nE0yg7Z4I6hwvR3c90p6GaG0xEE9y8w3mjQ8aBB7uA+wNgPjPAsA2oqGUCWy2zp5xPqDBCVU1rQtkZm/dV6u+X7AeN9jBqAnTeWk96jhGJeI5iSYA2aVXFacWCV8Ps67CpYvKu0kzGZXWIVUGHirxicQ7TV1S+xxhus06QWtiC8Ymi5PRJlYaEilc79m5OZKIPjdrB6bqMa8z2f0USRaZvr1aebJIF+bZcO2a6j7xvrkks+SfTR7DIWN6z51LomF1RBT/RqLNCvvBPID2ljtL0DP/ufAuCHfzxdvouOTMzqCOasDCunxaJMHhbQfKlJ+zXca4kbvgOGnS/aFJUSYOWggwKLPTgl//khewIMse2og66YahmtgFS8a57ZeB8gtBNAt5MfX7ewJN0uspEb6+7uc05OAdpU12Mc51OWU67Y0XKqGoLzD1gmuelExmxOryF94yDb7Niwq4slgXNIkD1lGA/wlMoFAIQ7lxNQ1oUHqSDXSXlGis24Xn6xBZl7s38gGGCKAr6wrMDTSJsRAZlYmJk9WLz7zbgdTJuf3NY+WRArH7hfQx1FfpxjyEmy87kvVwiV9NiOjL4R4AlOUR6/BexDLvblcKwg7/Zx7kJlX2au2NNXAHQBDgCidZlKO/R5EMJau4hopqqmJI3WjzbP4zSh6tfMrf4OKhm8EtEzSxjsfqJ+fU+Oq8mtElguO3kNlup0KJE7vKdVOmVpvrL8AnctI2E2rnHQ767WzZaf/9wnjHNN7OnoEO079C0UdMD7xvDrl4E/WwxhkC0mJkLI4jl8fWYa1i4gN014yr1PpGUfviyu4QqUCn3XlgDvr845NMq/6Aw7KHYEf0ePB+bHx/1sEEVwZyEtZzNmwWhHIse+MDg5b/TmAxIdOpeI0UQYGrNHy+vhSxToYx5iKDnt0392D9ehqRgvjDSonzc8XERLF4NUhi6xkDssuo+3szzWokWkv2FnzxKzJ3El6tFBuzK23gOuuhv+blItqyiHevzrHQ+HXrHUFfOg5WBsJsYAJxqnrKn++bGH8//yNoLpr6NRG3NPyKcj/1sabJZFOCasj3eJlPavEbezjP0V7rj8T/wS0PLSomwGSigKfYnvZWl5SFOz3p7GbeV04QQfBimZiUzEBIXkWO673z+jyIPirMaCXlOIChoZkhPNS21av7RUo4r2Sa6ZBmmWMpOXDXc3PD/8166PmslRrsGzdK4yJxA7vJGb57ZnrTnARgnx7ngeDmWpXW5C5gbmYT+82TDjbj/UoczIM7MdwTs2nDghE6GSHpqgBGO21ibengIFdkfj4AmxwIaLF87flle/dmjQ8aBB/eA+wNhIfwozs2CZjuvg1RWRWP6ucS3mEXFeZhtUcM+qpLPIxZ6R4kGbGSZn8xDgWjya1qCePXxW3yr8vfT9p3vignQaEu/U1zG5gMKYkkhiOUL/rxhyErhjhrkHDnY/gRg6qWo/otY3MNasgzt5sILNqUkCedwL3GK/HNaRxIi+gPeuI5+cLsgzkpKst9Kw4OKZ9jW5yDdcgRVW7FJEM3dP08fn9Z2gI0zu//t9DgGQ4N9wmD2FoynJRRbn3Sspbhwl3Y5EsEPFQjFXyokxDVytxPm/i//x3c4tSbkQBljNWTFXu3pBiTM7ceckWFzP9Gc80I1LlrX2a8GwkN1JDNrB1euYwbzMbQz0NkzXq2xIquyQ9rwZzQCoweayhXWtmh70/AU8EgaH/+lJMS48esZk5JiUFGLto8AZhs6q825MPVvPmA7ZDSJt4DwLLF3zuKRmhAIfID9m+TWOSCYLes5ENTr37oNUUiFWjJ+qsOs3jAxdUIqxIXUxZqnV2Pq7kM6uMWBZMQJ46GqZWxJ32H248dz8lK/z0gKNMetAQ4oVc7ghsn5o2J7BAXw4n18JqJNlF+tS/RzStj1pI9c3AFLLiKWMeRCL1VAVNCcEZORKodv9g9q+ybyTlkXxtSrzyWK887Ha+SFMyH6Q2tBF6SlfxqkjAJ4+KHREY1qYM/NMWSSMQQB5D29v99aDIHYf+Nu0Avr/s2EDU8Bt7PDeA1soO67bmppb8E4t5ZrFMCY6pebkGIcsgKceAimgwcv98uSet69urjhIzIGWXbEZqyIqqNw+dMFmDJqxdCweIuoLc46aYmtlKt1Dy5/9CloCTmC2bUI+GCneYWnmwuHHxv9xB2SYC43jxjl1GVi2RXgwOvCkoF67K7KhfmMi3qeU390L/7X/zVUShJuGw8G8NdA+zzDvRQCi0YDiimiaixIsxMj0xzjwtYrV3dUk0v1YPClkZbXJPOjLpzSzUMboxJvke1SSZqSY3Y3VhVkkEOWEvQ+Eo0VWQoCq+H211sBU3A7yux1aD0m5J+0T3EoCHsH34rRjz9GaRnOVid8GnwnsTu3bk/7O1STBshYIGEpIOFNBlCV80+veIwoJorfLvUqElxuduAUYAh4+0S2dv1AxBVXavmnq489ekQunc1D/+cv8XgpPQaQ3QZ555vltBk46RBlhlhK714JEyx+KSTJfMniC0eOmBog4vEUeOQtnZgCx4HMdKF+oiuRKHPdNka2HbiJv69qUsx86XVND8MfseQRlffyZA2eRcubXZZd49qhfICjQ8aBCDOA+wNhIIoK7vUZq91nWFqAu0qOAJc+4CqXH6BJKt1Oh0LKLy4bEaOhUpCqrMkDAqyT8Ei2xU/V5i0kJokggAg1ShwSJxnRWUI89rrTeYSsYg1xSUa38yr74wk+B/I1qIvcppdEedZfEfdnLvdfzs3b7cwKojKbfv/VPSK1GN5u8kxFKyBCbcWztNCyigQ1CvxeJtmbdtvVyVvZqh5W881taOvUB0QfrneL5EyzKcxzHlQhd94A7Sbb8OL5SJ7TX4y19WMFW6BsTksIzwxo/jAYn8Cbfr4HahTnswrCdAVT+YcY5iELQ8tpAqc+PFspPKhgXoGbqhdU43ueCXSX6U8uVvcOgAhntClED31NruZTNUCVBOFF6APQiWW8sIucVqOYntFhs8VGEvFXt2JOgyJgItPG6gOCDOCPuixAuYjzjgB9GWA9v6plB+x3/v+zpaz1wgA0rzBCI7bvaAsHH9rsl+DfdPXQTNw6iMrX4EyfVJNHakjXFMa+3AkfHErrzknHa9QVcFjAf9g2LHSTrTIo4Vt+NMOH1Ev0pvd9srpSIcwxpqo7rgTLrVTPKq+lDirhnX51Q2D9F826gKv3Mr36VfANvAFbksrZdsSHo8Ik2/jzYu/Ecr4pdypxYeo+cx5y88eGHevFSilxv0JYZ4y2CxjoHHOSMRORBEY77UZybLNmvSsG91wczOHb6gFCcBUXY9DaLoMhEvrfW+eyQNW+qpabCy5b+Wj1f7Fo+FtBSqNVQcSbl9jYHtcwAae93axJh/akEG004Pj/yfQ8rU8NAxaCMWfJvKJFRPXfByGOSJbkCSw02zaL0Nh1gJpIEtZ2sVw532Nf9vgqKD2lNUDk77nIYRsJ54YCsti4zFpHRspKmMf8MvBd7e61GVV07bl0xaKvkmKUIsDg1EaGyzx6ykRfEQaL4P6lawGduakBYjeTGZYL98yKohNvgT7whXTnnDU/JWztIjXjn4O1lu4nYPHV+qUeCizfP53SiM63LJndjn7N5WelWSU/TpY4UIG8fsdht6FgEy6jX6uNIDctJoJTuJ3k8sCfJ6I+iGm9aHTpPwi1cKUyFuvywQdCCEsoiHOvdAY5cETKNs7Klr3Vzy6JWaAfhFAkOV76gf8SS2hFxNvCIVteBWAMN3L9cGbMncOy+TcbAuct6E5ENtIUmarhcgcMPLYCFLUZu2eRr3TEgOW+mZSjlJV/nF6bUgPWURdl7mEDEX4bnaQO8MpymFQSXiDxkVYII6Y4TNBPrQNzgbFGm740KRsa3YniVdocuSajQ8aBCG+A+wNgLezTENyKKbsKY28mWK4soc2WGOeakL44RcmAA4mCc8m0vfJQ3y0jdxA/UvFPATBGhg8rBnAPruIJnwX6t0d99WEiDpQJelQ5tpGuzGH77LHAMECUPGmabAcKoDp3dtAoht6zVfvX149+ivQhO1vIe8oQwxhffVaGvBGLppap0HiAcrKG91+cNhsVTr8UbXS1Wuw1KpCr0/6Qsp3g7Gukot76p7PiWfm7i/uv5HjiB+OYI/FDd5WaR/SqFHv9S0S79Y0TBUr+aFNQ+AmalKtvpCHxRT1Gr+fLvYGMqm/KO+lYYLFjmE5MnrHGZuJxb586F6azV2Hna50lKR10dM8wOLmw8jZuWx9OwxF8vsbRCBt0uV7pprC3wguDfQBAvycS0wRIKVyb+pwkcJzCs4IkTXivD1twjZlYO3l38XN1Y2A0om5WQejxwxCP+uo+puN8ok+z5q13g6aeLwVfP4sOChsyfPrvFoXQqm9sj2lTKwEVHfccz8PwLZxhex32mkxAl6eXP137YwbslWdcCQEQnbee0xxh6J1cuIwh+qk5Ah1b/tMC8mPsVIv7rr++vOCiDenU6flWkX5mkFwXwXsg7XBq7RnOA482K4T5hUN34LpKSkJdcUaSGCxtbXtQLe/X5SWcgU6jWRGxL5v+Ujfl7iIThJyRxxI96IOuuBQ8dm2/t7vnCURQU5D1TYGQWAEEChuQfKojU3P/raJs1Jr+55dENC0zJG4B2IjtdCTEQSTxcLctwNNMYJze8ediQMzb+MNX7bgzrmOX+iQV7/HgMnkKCJ6HYl0mOGFAtGYDAFoCBlSjsKVLKIz8jI9sOInvTPoom2BXLRu3N4UKajbfXsVWcEu8VfUSIo50eLoS5QlYwKFs3y7RPUhWwIaOkvrkpBeWzbHavtkt7JmEvZu7ocbQEr6ga5GEEh+/J8jT1TJwuaEItMgZkqyRCF1oidZfcf5imkovURnt8EozAftFc5g6/NkjhjsTrhfeuTglPIo3YgKZnTsxxsWjXxM11SzkakCSiJBPCoq9F9ToHC89eKSe7mIH1IglK8Mu8PzpuezKzPWn0+qhE/8qGIpwsSd1J31h8ibIaprySiKuZ5AuEXgoaHBgaDybz8Eeq0L/E5VaFmsJjUOzc7Py89lRVCqNwfWTDYYSoncysoWkhiAniVfng9numbDMyYWJRQpknSEVAOJIwiwOjsgEzcKHG6IEVP333UW0cr6O7Rgtj75wLGjjawmksIKzkNZdm+9PxDgr9e+RxBWbDok2r/esuTmjQ8aBCKuA+wNgL/zo8YsvDuLJWT6vG4ebqjREo9wrg7bglPKjlb6M2oiLwRpkUZIOUo5XqHSAHImoIVXS8WjSFpEJpEiLMsMR8iV3dQwybW7W5dbF7HUUbYuU4qfye9iiE5+kLrfHNqiA1FxS7HKajnP+gH5Av6SUNaqIcJ51DRdBL23r8pmkup3nDyHAyAMj9hp8mVUyhMbwfBzFv4ogKchUjsx8L25S27R44gRHGEzcNAcTB1Hua4q7Mv5W+6vSaRABQe5uiC4P7n+Fh5d7+FSaXnX7J5K9hsXx0t4Grr+0LSk/aVisxfghY5PvTBZVVIe/WcGOnO/FlY6kL1CwLn9N8QtFm+nU+e8v9Qxqqm1MirpAJNpkQNiWLHPQri6QJKTlUXGQ17RMSCnVKissaHLcLNqditYRVG0kRYCxC5krpxUtI1WCz2BAc0UDJ9Q/0DwPj8uisc3s7H3UctvPMsCUPOZwN1q6hHMFRJZQMFxBaznxoOq0/x7ZZPxFLRAGZ+kWk0GvQFzhVSZOQkFJC26u+gWBqIBuVQkMM+QhkewiiwUfNsSwnCmPCQ72vXmPnz65pfP9P9kuYk3r9fJ5WajTlrDaARW2S76ILSiCkQ+6W6IizqSuaHpxIuIuF4WyseEGMiPUbGbdRRnJOXWE5uloJ5nAxvpEZJdTKgt20Se+4FUtb+hTIWiZDI/V2s28jXkcu11vZ6hY9ExG2u0ZALOi5CHwEnXqstnabyBoL9DTVXGZr4fcTfC+QSrw0oXNFsQ2B2NVE4fFZY110euZWa0/gXjNt1+4CI4VNoFNebOD0/44j89J4HflsJ770zjggo9j8RLVMOAQGbQmx2HApu7KTZww37DjYDW4zaxcjo8VOKIRGaMJCVi+M9ZNHNMQ1dog0ip3b7nhEOhDZl9t0Aak0mCmzptt0ioghdN+uN/Uch3UITEg44I8L4N9hErMXNz92eDGOQc1icOFymGe/IFvGNHRQjo9MU86bV7EFhTvvyjyV8ZwaWOwu+fY1evgVBHHGQy7MYe8vvqWue/kgjpAbhfVSNDTLBrLOUNaW34lhTtUvCW3PwI9noijFaTQ3mYE6Gna1OZ1Vc6Q5qKSwLOIsOHy/4+oOBdCGfwx3hAv5kR7iemn21aBAUuQpfwgx6EjnieY2BRq561qR+KQeXSZYSVs6JsCdldZBc8aPhZlmf4kQgRvGP6aLRpdBxTAhGrp+uuTyQCpQ1TDhayb0CGBFDihf5LNhsCsTVz9hfDJ+6qlk5J4YuSsqqwqKyeOLHJ/ht+spSGjQ8aBCOiA+wNhAruXn3r0R64GE4MuR7fDXyPl1/nXCAh+0+RkFi1M4wpKEUG3bYwopONdXoDT9D4NPo9GUF3jN8fgRUpCtKKDk02b2Ycj2wjajV843DaJVPlaXBO5WMr5DALGxw7Dx4nQ9kSfQviHcz51q7aYddlajlSbutExst0CruF3pSoHVDko7GEMJ+X8ALmWRslosWloXNtvwLyF4mgHQwwy/gPJE6IF6YV7IFYBS03eGD64TXjl02RGghzXYEzVD0GUs1n9UNFgPvCzN5EWsQctXOSWMc6FfkrpgQM+nLgNs52yTyozsB9XcYa+g1buKN7P8+bpjJu7E/TseGoeTsKcc2dCLEG6707ch+njmTKwJUl2vfnwoeUNx4H+HTNwAW225Xk04tQkkYjRg315To+A8l/FnPgtCDOixKsfWVzmTEJMnGEg8nhCqT2tokyLTCl3krFl+Jnb9pB3aSD7S1GNyPVJV6+p7Ptm9lsaht2bbYvEXMDYrkJcTAk+faRPtPwTItDaL78JREpN2pNToliNaMTThFN7L75rzPAVBILT8RTa9ViFm8kOIchFcIclpCG9GAemhg4GMdeBMlPd3moYtBF402+a+ObeKSLENNddG4uxItReaiNkHgG7Qsh1CctsRO6pxb52W8lukWrA3WNcQRrrCRej1P24SwJmLmkimLg6VH3BI+JhjU4/Do1FU3y/pUnqI119TUMRtlEyUNxmLre4I1VyNOCBJmONXx/eQkngz4FmxTcljGtaBrxk7NRj32u4uRGE30Bn0d3LQNiF93zNYfXhV3D0UON3c2ug3YTfmTpJH/4RcOjpot/cguzoR45fWmOIRJb8LBxh3gp1iND9YRi3fbWH4bOo9d9uXfCW1hbx9DGyeKl33QLus/wfS7fPjrkfCVC3xzLvLbiLRP3Fyv9J6+8dC+vvF6sIF9gfBPxX2lfmv6WZ5o/nAK4m79limIgnOSsbdSOxYw4Ju4UK1oiHopPc6XtjnlXTGd9qCDNL21TyEodc5U7ZpfEO52iRCdJnUruKf4kmmru+nDm8vG0GI1i4pgnyxVyPcBBbkJHNVnjH7kImniESlnyjDnIb0c1BtP2F2Vpr0wD/L0K0nI+JgS41xyCQxj2UgbZh1USLok4fgQv515DY9UmGSC1JOXgFVmF7aHWRkh8k/yPCrW9I8DXgZkbIh7S29woDRR7GNeeKfCTadswA+474G1W8Psg+4X7HRk1f0skOfJwcvGjtyDmJJkfLfe0zagNx8slJVLpjDkscH9iH2B6Sn+OjQ8aBCSSA+wNgbgtKKDh0/zn/YffYyiPyBCe4dFVrKSbY0kYh2UAns9FA8KtLS3/7IueZPnmqZfvxpOiOUmuKp5J6a0J17F/lQCzhpdTVa0/Xklej3t32jtSHCAWHIol78Rb1O9Ln4Hau7XueYeaFLGRXT1LCpucgu7FzYmtqkdbXArUO99jW0mHYp2uKVjwWvGQs71bursLDx/gkSA7wv8m4UzDCHjGbLeDOKyMHK+e1eG6GarphDfQeN+UHVDNYzyBwEI15jnzRh5sUTokAJthjfFGbQPxpPmenA8nimKbESlg+8mWHUvITqFOUwaGs4kv+4fHrzztDFrD8vi4OQaze+b2ZRPDmXRYgjUOt4Ooa7+Hb4TjusI2z4hmVJs59oYrGVHqtnNXJuX6Gj2rHX/M/VJZWHotgwmnE1GvqHqwtZfnmFT/eeGEgLK4sv//n2DC3glGHDfUVYQMoXgzsU33Vf9zvvsT6s6sWyUB3iosVYgrFGeKHlrkTbRe319IyPvZeq1SwJV0zG+RhGgbiv5fGOHlnsrccxtxXAoCwZUVdMkJPX92ndAj3ALorZeu/HO1nwjw9nR7k3F4Aym9V46Ma5rmUr29echn4H8MqYEW8TJ6WZDkn0KMr5KSqpXwxXcyGekPc3kqskoaxPQDaQsPpEMnhQQqDee7uhUls5auTS1LPS+CWN2oVz3zFdLHWnaJMenhtHmHfOte8M1AuTxtiopeLcvk3rQM9RAtktnHfep/5hWNYVkAe0WVkYxOv9vqP0dh+P9RrEMLPpCKIScbhGDGzhVRGbB52ksOSNbxvKO5kedyslxo2TiuzkarZRhYV/lUxHXcOYPi65QigGy2IZGwcKt8+YSDrBcEtaJF8Fl3a/EIF19eyUyxQE2WJne4ZhjCdxnN09wSneExvoNqKtkB3WB3m/sGfpJ3w/tNBzRI6FI+rFri/g4DaEqcwTeb+6sngK7pZSgWpb3hT7s3+xDQ5Ytaoo5JbnCS9ZCKt0Yq5tzmXDDZ1f2uCEE8X0QUbTNRIXxR27QckgU/guGci2d+FK6JI0ZAXqdO4o2/O82wzNGHGTyFS2K80wJ7TaSjvCQ65j8qHSVdKAH+nCjJcBqXSlSnPV66xkHIiXFEWDHWo+++xubHQxpDvZcSmVWpzbZDwsrTcBOaHHqj7caeo7JBB4HH9J2tgaESsVA1NVZM7VTyag8AFkY9c0aP34kMPQOCs2q4aipNLNC9vX2QwBLWFaA6NRpqkac9CX0717a5kLCQD3ni1tcUfCqiaDKW7i6VvDCyjQ8aBCV+A+wNhAo3ni1DWUMpryex5f0uNQFQmG5HKL0BiB0xEJfEIfYMnHE9Al0QPIvo5Wyk+ou1ah5h8WvUdpyFp2zWWyyScIH7srwTVAv7YV69q/CVElfIswVY80dPKh0AX7WydZfHfhE0iSVapg6wMIL4D7wFPVExICEYWu4dO1cAzzZUuK84+I7Qlsw+KKTZIIjPf9m28yvXPmdgDTy184glmD/nKWORxdLpNHdvfeqK+6qreGjl5QoWXObq1k8YCrvuSWo0SysmTaDxHqiAWiNYmYHN6ZSphXh7D+zFTwQSMIs2gDfddxxG1R1mjYy14U0ii/2VuS5+vR68usy5HVfFtFDoiKVhq+tJXLsQwMfrzS2R3+fAIZ770Jt7cVbq+K7QXsKQ8U/aWG/gEKj//GcTWiwCTIyvn/WOvD5j9pIGNxAgH12Av1v38uZRlrjwnNqPg/5r3wsslQ29l6zPdw85dLTnMwdTwEOeRVXQ23sfKx4wrcJa76ABbBoOU8Xf9Y6F95y9ZK82bAADHdFwjB068EJL5ZkpLW1owk2kZiVi4geOBNHRANJzU495kCmDtyjtk+fPj8fO8Q3jW7UgktOAMo5OwDNoUz+ZnOKb7UKEk6lCkPxsG6G0l6edSuF/yi/JvJ4wZx1WBXsxD2U3XuWuWGOHSINVxAQ01jXmQcIT1xK8CtFRBHZBwhUaNrhjYIhEmRGi0E8ZB+ZLckmDDcKFz0oXD0kWoj4l5gQXrwmnrgwhdUNw7cKTK+mWCmNoEp1dQmR9DWWE8/f3kdJHnYi8CmEGJ6ufi7EKanFwPwWWZ+pD3lwUlPr2gy2xNQqQ21jrvfN26jcY22QKCG097GS4alNkgYSIhmVLYm3vgGWn4TD4xii0ANbgln2tHoyJoKvLFY1d9/2MZZFfazrRD2pt7KDYv62C4CFpnPL2sqw4GiumEmBtrPI/HUR48IPVaArS4J7x27ABRA9MZLZRLH3E2F7gG1xZGs+kkkuxV+HxtBui9Az6a4LxpVEAqQnb7M3axxWhu8ZOgyYepr9UohNKVACnRUF8UTExiFsiS7OyBx+8xQOTeJ0ZDczIZdcxTU0JJa37ie7WHmxRF0OuuG0/+i9JEgNe2XQra10pcaVotrPG8t7UxooB8kJXbROoSjkOq/2rDJPUpuMrVcKNRz+SVNlEeFQAUHPLI2ddLmFRc8B44QFwhz43qNw0H9wFAWMJZQWwC39qR3MlrxD1BVdNPmXSsopUZHReCnnwZ/zl9R3eKFg3XNZFt1ycZ/IliAjsij6ejQ8aBCZuA+wNhATeVV13mt/8o9Q9YaPMpGfAweKsuVUQnUogEXxZFxl+aqMryq/a0DNLMkrri3BFFLojWUVUkY/Wi3s4Phvgd0Jc1v5qG9gAGPldjIzCVtZUFe45G0ZmHsYhSiGKb1pvTUzGRtSV2kdAq1UxQAkRQIAIHg0PIOnliZH5cQSJWyxlGHbfIIdkLoG6Krexsoxfmqogtm279soje0VSYtYf3+iIxsHFDQ54tsa0Tfhz58pPjfzhIjtfc1GNab1G5A2eiTB+QRZGAUUt9oJ0KCvqIBzI7j+XrK04Vhq1FfnnapV8DZmACLd/IEDySuPZy/WKxmMuLRJoND2x1VIqXKmx1YG3ri6CKgzgBuM6CMc/wxnKCJrKQL7hIk71BasnYJCCAVczLtvTdyi8TQ9pgdvkjp+09sjSXMyb7Sp1R/Ah4BWEbi+/xxST+rjtNpWxr0GavrU0m0Ot5tD4SZaKnWfdHo/onHznAkIHI0BbmQrdlmgqxIPO/TWMruS9fO4BuCcNH0l1dC+A90JLjY4kDQz41giGrAex0eU2f80OULjpi/FsGMsvw0+qekous0YznqqywIcsZg8yYyADhM7DwAFlvJBBs+9956kKZFg/4YoHtJzZPwUvSebxtGMjpW/NXx1+w4phtOndv5hnzebR8xU2lRNx3cNeGQXL+6i6ypDgDVcWgYeA0zGcCFHyFWY6wLdM0WdDzIc4NOBZ6ZN6lEJvHd6Bd0hzcSd6h0JNEXhbuQBX9qHKOouPtuSwy19w+X0Lm8SL4a9b4/plKKOIklRXse7FN7fihY0igEg0UBPRSCCbx5P1mpFfgZ6LLC2F6B89ONyH37hSSDGC6Ymz0Tp7PYGqOPip9SKP82Mkbi2/k9uHmh7HNLyK4REk0Wx5Ju7hIho6ZhvwhXZ7y/SZni5PSnlJK7NYqMjY7gH4u3JeFNIGPqogXZcMD3dseOYSBv0ItsCVQqiiycjF5qWlSISL0Y0/eOXq6ZQp8q+/TLeQkdmw/hCFXR53gdd4pV14N2/AsOp+RNvak1X2fhXKwrpdjeXCOtyp8WATtvf0bX/5NfboxuD9wD3iAiq84uHKyk+4sJ/JkavxW1gZywibg9LwZbfMByHujiAb8hWDqlXJUh2tMamHcf4KTCVEVYYSHxxJN8RZnnT0R5Kpp7zmHB6sIg8ewvYLI/1+jMDGgx4lvdDCeAhvSZYWLy5LxLAIGhbrJLVTn/XLuoDFvX6Kfs5DgRXdsnX8sgBCOLEB6Y0nAfYYO1ZDF+6yZN1Rz6RZ2namjQ8aBCdeA+wNhIGNybQwh2CEmpuJY3CltbtqBHgHrkAyJLKjYhwv9drBBzzr0tMxMItU7lFzpoXYiGolWWiCCNA7Uyq8V/9UEuH2NJ+dhsh7jopj4BJFfrF71RCgfDAsDSAjWFiDt8/UKXHavAotLwSoQKsfu6jlRrTHkDJ/JQzAM0MmXqW/Zt1pta0Vl0yTwzSk/2YSmhNDVSBF1j05F4KLTRrUNRJSQA+k1DS/FiwfySaBn6YG2TKiwYdRU+o9AtB9TPrskpOZ4ak8zWCii4+T3lEuv5I1lHjBx4kH5JMsKv8KnNixcOKCJpAcMN/ap6oAc7ZIkWU7i86oHZVNfz9HiXiBSs7MOOQ5Ujq7H6hAU2oJq2epZx0lnwFPMJMPRWWXxmVEM6I35S21j5gFVflWZvFqwP67Ul/FmbX/M2gsgZ6YYopjW9WEbBzPdlMVcYQSniQ2+t9YPt8bAsmpZc2bMNQ+TACTLSSGZHcf2zI/GuWj9S/fzlz73i+39qNAQiOnBjIPf0Wm6NxEIZ8Pma5SX3PvWxMH01GJRAq7Z5Bh5mNsb/NTGOzj2ofTFlT7Vlqvo8lnL4MnKP3CgfAJK/wmb2McWNpVCPBsfuG5rGQwNLHiN6i38sgR+Q5NPQW1gUCZZq/FSxw0TruYoHvvwk+zd1OjyYUu16fOK2oxnXrhpkeq/HroAxNrXmxTyZzjEkmOBwek0Qnr/OwGJtKwh0Cqlv9Y84XB8XPPDX5KAblgis529N74dSn+Qew+Uu4842Sbbn1hijZpo+MsT+ksFB8mfcLoecl0glE+gUGITZ1v/ZZvW7Ik1Y1lomdIrQyrQ2YbSI9sh0TF73IqjObmBqzuE+K3EEPtuYQ3Y57og5M5ZAeNWuflf7iFvQCWCly95PZkoAn0ZjkjqoYVFSlM5B1V/qkGEGhDPrAFjTVsVC3mW9DWUZF1Lz/eHnaMwyNRX0lw1B0e5p8reXaLmJg/t75HPCTkBFwVJzbgdWPhrJId03OLeEhzvxtRe+GWpaR5NgHmD7LKr3vNlY0hxyBG5DG1CdPomlrwfE1TkVMS4tm8ilv64xLaqXc/gc1lakxvdKhCwklrYVvu2QfVbaVY2aQRy71daN42igYRCHyXt6w6cuOZcBOTmvUulMs21zXQSCacyrY6+XSKv9jCuJp069UxNWLVFRVkLQ7NtY9uPuOdt14BGFbBkM3KvdbIKQCgV+LGiTv6nPgQ/EXDxorYKx+IlaJkIvdP5KjmbZAtHtxotb6a6CvzXCbvLLu5PMTQH7EZ9PWHoONWjQ8aBChOA+wNgaqZ8i0/SLlJEPwWZSi3Tv2pzaNL5WMfPTUh2tIVEv1V9S4s3GadqG9OgZBavVzFlhNs0D3lfLvc9HQc4Zg2U0KnV3UOax7fxRcDf9EyC/cENi2VoCsWOYqlrvuEJtH44FK2ycjs9YUt9pYpdpvjnZnZoeqUzlRru7xe8VW1vyGeX2Ty/feCtzusivHT5Mf/+6Dcr5HzdFFrlozUL7zPk7HXzlrOjjKa55rBfDq2GVIT/6gCOcl0ThVZ/nNArHthrWFhRaovTcl2zIT2290EXIcKO7zXRH+LVqVvmw+eAt3dycFXFR0qhP10hFH+PuP2kH5zid/Lxy+7dP/h9FTSLnRid0zb9hyMtW2rgaR1ItfIcDDa7cCSL/iLR191TFp1/tIWQewUypfk86no0/c3QtUCkLAJwOyj5ayknq7HHK2EbB00GPSy00z4O0kTJtgutdhcKCUGjmgLW+mb5Z5d//Mp1puCepEUWiO7cQF4alZ18eLGd6wj3bcDpIbIbqSRJqEyIKardfGTE7+3ZvS5xFfWhfx1v0YYbNNT2/6pulDa6bMsHO9PgWWJdURLY6b0d7Lsk7aYiv8RDNl6Xt9nQnPp9bSYQ1A4VFNWY/RcX2Io/1yT8DPJQRLwoCHhV65CxoaK0SEjkY/azzk/xtdBNIvu+XijZX0HLYDt5e+hBJ9X37fexzC0iOLR5838mtfH7rnUpR+/1YzrSWUJwMumcgqldjUTWwS0DX5IUxYzaRy9EPzgPMNhywZcNHjkz/Fk42TamiQsp7SWatjwPbWw6fsor1Yfm4lPDgLPPIHu97HYlhBBZombG1d/nPWNi8uZZB5cK/c5MLB+YhXJZNOcuYQXEEcdH0wF3bDkYu1vbcZIkIAWdnxF3H08Ia3k6f8qcChCZDF6rD/PMbY9TXD9did2+qBIc/JB13jQQM0Yc5tKsrbjIr2Xc8FkSK+e+WagqT+g3glahVyXZH/flzj05iYXBRSBRmjPS6z7of/Ipv4Lzr81M0GAmQfn1ZyLHJq3ZmgrDITOHdd/VePH1dNHGt0NLPXjkjrQYNim08hNQBFaZQU5H/L0JAsjKrfenp1dn0YDsndsIti5GHxQFtkDXnqDH/I+0XMZKA/LiFjZ/9O1cvnGFjsZRHxHomw6KLnSCz4YPWKEhQQfXQWcr6eBb5JQ/mK2nvKyfpfpjLvx5KETYnTeZJ3w8qADAZjslT/u4v6ENBus9Q7Co9EEM9ZpCGvEb9Z4ox96rpN5ImGossO4e0h5kiKaIK0h7R7+mSMujQ8aBCk+A+wNgLkmQJ3Qbs4RAf/FG9ad8gppB+wQPGqbREvi2RIUA4XvRbX9x3pyN3p5jrqGui621xs39TRqRkuaS6fDtxmyH6ILhhOFE1zAjq50oM2n6PuF7Inw9n9YroMRRrt0it362xrP6sdshc/chazbpiAgBBE4RItDqmwO/PyGDje8ejc0Tpk5YMv7VZ6Jm1O9+uCeb5CPJB2HUkCf8oYnbBGnYT3m/Cf/aBzyvttBWv9AGknrKz6mB8QNJReKta7QevIYdC1L/xVyU4ReT3dpmu6+7x7Qc4pgbKvB6TfkG1yoKEhPNHwrq3EQzXve6tfRgKfOIVX3ArU5KTMruU/hbyJDMynBzluiIgSMxUF6jhZMGQrD3wf4Vj1mzm33Z8Jh8YUXnsc1CQgNMVC64anNwsOkzoEpzkn3YAhodhlrh3I+byGEHeWoPzian6qwd1f6MZnZnGD4B3VBIu6o0yKJIdoEbnKp9FV6uwBE9NeN3WY0ULm5NaTNKAJTzIjvlNsLO2ow+SDzTIVPWjXY9QcnAHbYLBWj+l2ErUGuZ7gzf0fMq4uok0gorg5p8attEzY1tC+6ATDb9SbxY4D/OxadoQTBa8/I/ekqkJKA7bkEFX5b9ldhMpx2jlBt5+HgRRGMgryDmMw4hXAxgn833eglIDOVNcVBvDoKawwckoZiZGzKWZGo+mV89RWHxSAHPiwRVTXDxCiq/yZkiAXvz3Dq1V7CeiQqhNrE/dHjg+T/OSJh4rrlf0K4zDF55txnFjskChZM/QizFQwDaeYgLC4kzzp7wvYZ6hYFCcuR1N+Ia9LB4GgjNzakW0Zg/y/ScBhtTTeAarB7N1WaNnCqZ+66OkOMGYG3TODXJDg940AM0myq+Gu16Nm5ygpU1unnKbudHhY69DFPbNT5YRmqD8x37RQ4NLC/yNMCnUheDRpEUOXJuLL6ZfrlAF/KoFbT1VMLs+6bLMm8z/T2qi8DbxC8nZwFV+2zSCbnyZ1TpfjXyq7Qnh/Y0ULY5cYVuht7YzZtVB5oueeOuFeog3LxodSKxaEreaSnb94eYCW/kjEMWZub5Ed54HtdlVbxrcxQwvl5ajY14JNc9pfF1umuiilqq1JdkNLnj3EpZ1D8WXi2gDXeIQ1iL/mVp/BGm2Smi80su4EZNuT3PK1U3W4sEHXgMSw3k3vdUR/oPhlDbxueonkwi/Fha19amECsi8kWW0JdCF9fUAgpXqMUAwLIkHeRdxBT6VzdYP1z+RiLmQc8Vmj7twbHcayXEtYiH3oNnYJLcSLujQ8aBCouA+wNgLf4b3E1/E5uuc0S1uB9FqWR3Vv9qxKho8u2XbtiwOg7YlrD9T+C1YE/HJJ7XstkmphP/LxbLqztVz0JCf3cCCT9tC7Qcj4KfS5/Akpnq/lIiggv314e1znFbmanT9PxXDlwqRqJzfkA69pk4FaUf/S5PQQeiZSgbnxtULoQfVwvM97nu2MmAxp4XeJR86TT7KCJ8RLrk/xBT7yrJGqUblPdhdhGrB+D4yiRy7w0pJ6Ita1VasJCB78grZyAaFiuz9Q/OPc+YAErs4y+xJCiXaKPLx4ZIn97VMIDNCoiDW1tUaelk0xZGYE6/6anzGpwqRuHI/oul7keZprr87GVEszPZSQfKAUrT7tTaTlCSrQGakZdhELMmcgQMrti8CUHLqtn4flHyaPaB1gpCY9R3k/OdyuAnBjouuxpE/PVYFmAwl+d8jAvjQ+LWJVAfHMaYqNO6+eb/UKO82mgkG5qHi1ZlhGXZH6nTdGFQjqiDyeNa6oObnxYt7ef96Z6HJ61dkB4bPt65F7rnidn9sGAMhy1RyzVfrRdErBD3ot0vmmyaEU2JG4sGYZxtvCfulEteXlXx/bbVHwuVHUotK5WqxG+Kg1yRZz3/RYyHW+xuW3T30EtAnLO1McWKkEkK8GOfTPQDt3maXLVpTP3eBah0OA6UZ3lwiNYkxm2G1eh8HRHQPW0asvnKkS6asPLATO7KJKZIeMUS8UbvYSznFrbMRVSCFjiceIcHqlIxf/QWDBuIbDrapkuxOt063n57CpGW5w+yTkMr3ITpVGyvkCJ1ZlEDLUNlt0/AtBhYAcWeAsYAmJNcG56qaceXAZWA2HjaRYHa2wTAGyw3fum/1YiBYSKb32sFUp+ovVP5mfbI59fm46eZPwddrgWT+0Ko46nilrpn+0SYVzhZ22gtOdqG0bJvgSWD3tgrwq+fQuISQUxeO1w1k4OgRa7c/DQfr1fSAv0xfvdKIcybZQPPg+UoAbEAVdKXsGiFmlJkxoCkKhXZz1lTqinMVsDBt0OeQKgvXJubWOw7d3PFkAjOsyYb45sdZaiEbeAyUnCUI4GQ4STLsz0Z7Z5LgMuIbtgeDN1w+2/LRl+x+xTCVuoyv9dT8kgcvdM3Ki0XxU3pyGs6omPnEFEcjiz7Osj3Zl+xC6mck8NyHqo8AdQ8YjIF+yGLxl6mIqIrrtRjvoL9bREeaN+oEdYUF5fIeYnJeIEzJaj96BHzSGQTP5KHc+hIGfMUoboRYUmIvs7Kvns1Xc91orxt/nRG2iYNK5NnPHq3siujQ8aBCseA+wNhJAQegqJp94vcQzaszNPFgcxHSgKMl+F0s+nHiSocrDeX02fdTKykVOdxdMb9P+RvEG2Tfxy/nbG5POC+RC4LJLIfuYg6nNpnN8jQETyVde7EAs+9Jd6gX61/T6zuYDh+UtzTHuNYyrkB+qgwRZboORMSPf6YypnII86033yDRucVX04mRkDsi1NjCmIHDuv3EIfDgHc3RosJ7ctUZURF8lBu2NLTOEDANJf23xHUzM19pqcFadhSBaKYJvCt8rGLvE+nRB3wAihJskaU/1tTkOPn2aK9+MIUxYbJh6rn24SoUwD/OCvKViGDEkhIwstpaiXbVQgZGdx1yGXfGjo4FfSRG9U5RsChBsF+V4qKW4J9SgUyH3bTpD+wYhGQGMjr/rXyvedImbnvUOfNMTGCqpRwX20ZMS0Nl/iVboDgHmEFsH3Zf1kzLH7wwyfdPW7uh7nIehJjuLOzhDMADDeXp9UuFdYE52XSNH1jy2Fn392jAxHguMwdVeL4dFWz4PH3TPf/zCnnc9qGYUZGRcqDC/nqnBOExUtoQ7R4CGXfv6JlLuJxBshJcufJofR6VA2n2O96H3bsSswsnYl/HQngsA/z/Z5wMjEPkm2jqDRGsVe9MHrvvgHHniW5/mtTW3FWAZqiwWISjVfiQwQY946YoD00jXJTvlXyhYJUoAw/DekNjgqgIgAtgtED6kLrwW/E9UlHcqnX6nuncyJRvi/O5o5fR+uZ8R2KX4mIF+MeFA+Vn823/b7sIrcLncY/YzMpmiMaUBSfutDa66bLySHt6FvHEfzSIw54sis4NYJkIEOZYp2dZAf6RzyFk3uXnLFZsdJ2jxmtBvwVfOqg1trTYQV82lBYxDFaB494J72/TdtiIhTPcCE1g41MXhwbkXdCHpjmclkh+pGqFBD97LGpC/ibxomk4DKLLK7G7TW6HclcRR8QUYdVuBI+DrmhwjUvjt36f3l8JFROpI6E3XruMqGBJ1N8t31j8pFrJqKjX0JdhA0O1bHZZDCqcw66TEnDR4gyBjgdNq9I5Ts7uvFKC5kqvtbQugNLA4N8BQDhmrUDUC1igPBpjytaP205aFjjO6a1awMOoU5JmX2QzU6fo003GZF50/su7TIQpjIFwCCCwnJzfVopQcZ2j9zmNwjcw88Km/sRYK6IuzKpANI7MRzrHCG+v3oSXB0MenDn3DJrW3cSSqAi6ZomtqTcOpLwHdKUNPQxA+944weFPJUDldfOGfQFJPP4Sc88CMJVH2Smmw8d3oAcCuhFLV4KHSOjQ8aBCwOA+wNhAopWDyYE2pAWtBRscCa7QTpkRSapAIZbZ7761QKK7obBJuVf2tMvntdmd2H826dcabkgSLIyGv5PMUI7w2ULgwt8IFz+xz+8aGnY4/f+w0MLA1raexvHCFLIifeYlRJb9goebLTe70sQM/fEETybhHSgRiaw6fqmEkmmmpOzSgMtGJAlAJAiT9Tp0DZ/6L874vIdI3tGL2j7btI7ktMDNlQ6xX12aO1HxGHTu09FBZEOtgshLR0UqZjvalyVG6bFmG4DE9Az7jFdlxX8WAUPl9VouhiXJNLZqJOatMTd4q4FqML7yLoHfToCKMBBzckn3ATnllgdJ0an8ccwiLnqbxSbRDVJV/mTR8cQWTSSBMX6TugBn9fILJ+YD05dF6WEYNcV71NN1nFY/K8XNhnY/GGnko7MGqtQaRX5NAykT2A+O478G+fdN0AKMARncvwmTEuoddZ5n2S0gR08OR7fXvTtrhsqcX519hV8bkbAu4m1aIbtSmZyW+umxduuj4NWCLPE2v6wJix594FIXnmt7AqWEeiBeJOe8A2IL8/vqz+XyWR+3ugjGoi3hk6BKBLLuq1ZwVlaxlLW0+ySgfln4i9v+v+s58p58vg3Ewz9v2LeDQMAks9dExqSgzBpE3HBguoSvao3VosaY6r1pJvjsMPTZn8wUOVXiZE3wuEEhplFAB2G/QfcpMsqcrxonYBaHQXfadXDHxJSoXS6MS0XALpmpLS0CE4GmQUfTH2gGzhNDTYEVcwZybRl41Xhs0JDj0vTEhBJLAWJL3lUqypKVRCrqwJZrSd21NHQawe5ubon51BF6rtUlMaaQ81vdvdxHvvjjPvOGge1HupIAlOgYG4E2lN4KAStma/daKFEP9EB6a1AQ253BPYa/DL06Or04ZmZIgL2Nd9zGmA2FDWAxnNe1NtocLK+FwoOCdCG031WfHHFAqASfzTvVfs7KVkeOj2dZHZdAd5NXtbJ9V+dv+YKS7eKqJxXuqjqHXVZkqegJ5+9ofn7evRCCwMZvsvK8uV+e2HKHF9F0FfvqNVl8nW3qMB/gltCVBrdhmDOaBuYQMZ7LswzoKZIxtfAB8NeVKoh5E0mnp/OWqsPsjxelI2tlIMJRhdVHJcsdOLR5AJKVH1PU/Ggct0A/a4FncUj5QI1HzzA7/Pi25JRNW9oqSHd3fK0ZWrxK6rIBIA9OffpbvxpKuParEDYMGBIha5/M66wQ/YxCRHwDoRPliTxbCEln57ijCmWh7ZVeC9b3AcaXsOxnyQbKnlhiM7okOejQ8aBCz+A+wNeu5m07cWVX5XpFlfrx95oMjGNb2fFtXoDnDXR+7L2spaluibmLbnthD274KBYpkazoSbsanRRMOLmE5OUhlPf66qDnbvlxX3KZ7IfVb3v0a2J9FwgTLeF7y/CWHx44z5/ye1K7E8H9YO3WNFXVRhrC8W21BWlrySUsVgVGkw6LOMRTRBs6dM1QIt1LvUDuVsoP1Wx1I8sjNGWJwwwL1IKbg3Wt07LfffQUcw81P0p6ifM3qSGdV6jsKWat+slvjfOOa2NFsm8LcObS+LGl8i4ckXSRwifFMaTkhV+sFPA9d1ymiLmolhpt1C97ROrE28Ek67Wu++M+AccJpmKIKUf+bXsy0jes5zBolyeudTFFy0uQIA/sfBlb1F3wbg8vOZovWmJqIF/Q6poqqf2zjHfGSki/y7rNKodihnyBjP5iGBuCzxlUn975z3GOZY4tPDmvCfONNxSMfwcvmAwVShiI0nWkQfhDiCX3Uym4RGL0O+blWO8hvuTCXS6s9Blb/vkfZUxRR3hOlJs+/VGUOPmAkepdx+Y5+td7aVMhMLePrbX6n1dBFeAnW30/Yn6qZfX3OHehH8+Prc1HzxzOJDwIr2d/DwTbsnKWtekHUgNLGthbmWzxnTmmNSwDG+TNr3n2Nvv2YM+INIg64xMT696CmQHNI86lXysK0MIdXOL8qjCdofuGJuB7VaLVQJvxBhWsYcETnrow5q1kP2eQm2sH9B6o/FnBQHv6CWjGNFB457JxjPZkfekR/6EusQkvxUdoPJbFatYuUFa8Cj3nVQcKHD6/o3u1NJgWwH796Ut82hcbFPJ6JNgXUQNAEE9nwpfC3uapu4MqCjXIRjCFw47YC3XxC9B0EUoWJO9jO5A3+RYd3ZEn1XKKsbFIOGI3zWSiOZy/4RgjJrAVT60l9B8EcFvxwk5fK8RMTtTaTBQhtAWBz1Va1CT7hp8Sc8+d7TVVPbEoBEzN9fZRUN2Z2AnJCow3hL7uXbTvvSodSED1+ZkEKcP8mYtnXC3/uvV+8VT