"success","timeout","failed_images","failed_audio","failed_video","trial_type","trial_index","time_elapsed","internal_node_id","subject","condition","rt","device_id","stimulus","response","estimated_stimulus_onset"
"true","false","[]","[]","[]","preload","0","833","0.0-0.0","5wmc6c28sfrz5u1","conditionA","","","","",""
"true","","","","","fullscreen","1","3010","0.0-1.0","5wmc6c28sfrz5u1","conditionA","1168","","","",""
"","","","","","initialize-microphone","2","7979","0.0-2.0","5wmc6c28sfrz5u1","conditionA","","30dd22ab2b37206c966e6cc1697da94970f6bc28a96247bad18d1b2142137ac5","","",""
"","","","","","image-button-response","3","9787","0.0-3.0","5wmc6c28sfrz5u1","conditionA","null","","[]","null",""
"","","","","","image-button-response","4","14291","0.0-4.0","5wmc6c28sfrz5u1","conditionA","null","","[""images/celebrities/1.png""]","null",""
"","","","","","image-button-response","5","15851","0.0-5.0","5wmc6c28sfrz5u1","conditionA","1559","","[]","1",""
"","","","","","image-button-response","6","17665","0.0-6.0","5wmc6c28sfrz5u1","conditionA","null","","[]","null",""
"","","","","","image-button-response","7","19478","0.0-7.0","5wmc6c28sfrz5u1","conditionA","null","","[]","null",""
"","","","","","image-button-response","8","23981","0.0-8.0","5wmc6c28sfrz5u1","conditionA","null","","[""images/celebrities/3.png""]","null",""
"","","","","","image-button-response","9","24842","0.0-9.0","5wmc6c28sfrz5u1","conditionA","861","","[]","2",""
"","","","","","image-button-response","10","26651","0.0-10.0","5wmc6c28sfrz5u1","conditionA","null","","[]","null",""
"","","","","","image-button-response","11","28455","0.0-11.0","5wmc6c28sfrz5u1","conditionA","null","","[]","null",""
"","","","","","image-button-response","12","32967","0.0-12.0","5wmc6c28sfrz5u1","conditionA","null","","[""images/celebrities/5.png""]","null",""
"","","","","","image-button-response","13","34270","0.0-13.0","5wmc6c28sfrz5u1","conditionA","1302","","[]","2",""
"","","","","","image-button-response","14","36071","0.0-14.0","5wmc6c28sfrz5u1","conditionA","null","","[]","null",""
"","","","","","image-button-response","15","37873","0.0-15.0","5wmc6c28sfrz5u1","conditionA","null","","[]","null",""
"","","","","","image-button-response","16","42375","0.0-16.0","5wmc6c28sfrz5u1","conditionA","null","","[""images/celebrities/7.png""]","null",""
"","","","","","image-button-response","17","43414","0.0-17.0","5wmc6c28sfrz5u1","conditionA","1038","","[]","4",""
"","","","","","image-button-response","18","45219","0.0-18.0","5wmc6c28sfrz5u1","conditionA","null","","[]","null",""
"","","","","","html-audio-response","19","100733","0.0-19.0","5wmc6c28sfrz5u1","conditionA","11631","","
        <p>Please sing the first few seconds of a song and click the button when you are done.</p>","GkXfo59ChoEBQveBAULygQRC84EIQoKEd2VibUKHgQRChYECGFOAZwH/////////FUmpZpkq17GDD0JATYCGQ2hyb21lV0GGQ2hyb21lFlSua7+uvdeBAXPFh0yYbHDWep6DgQKGhkFfT1BVU2Oik09wdXNIZWFkAQEAAIC7AAAAAADhjbWERzuAAJ+BAWJkgSAfQ7Z1Af/////////ngQCjROqBAACA+4P+Rv4gfy9CpUSe+7orzipQGHaAkyInQCRUg0M+i6RnP/yRE1ZHE4VoMrc0H8m9Is0FonrWzh3FyUoFKn49jcG9HhhNtQZn6kDkn4IZYISAzstdoBF1WDLgWjSZUZKDqrF4AB83mEGKFCzZcECnWZOI+RY/qH1L33DEyB0XL+5c3Gf/8FKRXvFBjOrsqZUTOHlqAn2mlW2b09ta8qIyFWW3jXrmFsWKx8N4Ic1EN2x7r7c9LxDS4eeVUmJjOEGGo89yijDGeTJrS5paFKaXgvRynjd7G9ZHkjbAPRU2pQLJqF1XlLIp5l6XXd/wOD/oKZjCNyy/JISlVWCR/hp+IHpl++zgjgIAAAAAAAAAAAAAAAAAAAAAHcFvYBbfHIAfkdHtwNnER0hwQcxI55hIqw9F+Bqde0xRxaIk5kljLiiJaQInKbSLlfdDj/6dB496Q1Nnx5MWctSXXG6wQ/0yAwPY/e9/90Zxa8i3A3In4s9Hjs3a/BbWnsdKL0CSWZ78cVAuIlrwSaUbyoqAPpY3P1A2mEn2r6cX0tH2JX63mTfPi8sXt07yiZgrgJj20fVqQEROMVumD6NBGUIWVkpRLV4jPU744T43xFMpZIgEJHNZQM3Sbf4cV/Ye9ekCOL3rWfjkBWbM8YoGG0446amba8I1s5VHpUf4Eg2SsQAot3A5JwIR8vBMm9Lo9piz/zKuyEz3EM+RBIpk58RQcoZxczutLBPJ7W10gCv2YGkaJtCdsF3kG/6RJ/ShEcL9PDpxbktbdriGJ5HRh7ruQ8zRdQc7lq3D2UHmOt8VTnyvxXVTCqSQS6pxxoe7F32fkNlnGZYPrAgcCnGTMzvioHKk3OL2uQ6IPDf81DW7TgB0GYw9EvcP8lWQ+RVc7zJGm99Wtn2p16QMQ2XufO/nZlVTB7YDkjcDWG9+SnUEg2ZAxyvnqIUhQ+uZ5NE5UljkTPxKuhmTIABXDWzCwMWZ+8qOJ6O42xx3SY6bXAR8htGR/8ObD52osNkqyDLDu50i8bgldkUnJjYzjBhqI2ikZquWpvtc6Sf0lIirXGD28VHyChDrWglKyUP2hA4L5UVOAEKOeWQpwtgdb515DCLg1wVKpOg2k2ePONvHgrup/FMfYTV8FQiIuiaACvZj56HliJtRrC9iBeChjGnREzwl1jNQ1s2jKzJPvd6mcHkyV4nh4PJJi3HwEiYIC7MtTJ6rjUwNeQen9fyk9GrehllQ+oPTeVURj0urmy/8DmB0Hnxezo1+MIl/XrHrSAVgOeK0voS9+TjOFek+oepYbxsCsHC7v+5vcs3yYvQsF8Ikeo+gqEpjW6PzILjqpp3DecswWGfgPCvHZhNM3jN1gYYjH0lcE8hxe+2pkpr55JKXxvSciJdw4q7t0xlchVpzulbt1DBQ9A6X/A8S/GAePvhn2DBTTwvZTagliHWhZQriWShv+xdsw5T5DaWD+vhmBIfn43dcqzJNohUvZqCKZjDsew1WwQttSJB1su65C/Wzz/favyjV/5TgWlfKs+Le71CC6OPvaBPFnzruxGG50QMPeB7bVANyaByvRrEk1gREl5QTgyrETPFmJT9a7G+mPkJ5PAiTS6ORh+B5IbdepskEkxKgZMYuMbMUlZyyjm0IKenA7JtPlYXp/bzJOvj1kHa4F8FPL1edYxi0o0O/gQA8gPuD/An9CPGfoFcXUNWR/WNBnmSaZTStguRrM3SGFOIiMwSj16ga7E5qpdrBVy7lj9pQpOM7sIcX+CDyqriywG2DVVcCgfE1i0b8bVMgq68g/Y8evEzTbeeZHXVFcd+SztMRuB0G7vFby5hOCQPuGPVGlfvMTMyNqXVfvaoFsPs8xB5AhvAwbqi7VBlIzolep2ZCioqIOglU2q7VKyvVVnxbDbkdcvauORrNQ9inqQDS3qPnzrjY3Ge3deIFfxC7Al3zxR+u0vMP3jEd3dSMS9fMWuKwqekN/Ad6w9gh/MHSic/KQR3Uocl4f21Plh4FYTvEYg4FUO+uICzEWc7yvofYqZoyIzkfDKTHle7tBC8CO0YF8hs6d4kMPEg2y8ZlWzn4rBXkiT0A6Ya1Ste8BsN9vpk4VVASOD14QjDw8lQyaq1MhgMSiLbLP+dRQ1oXs/sApAGHYFwdKijGGyBQSNVJ7iNsCtL8SRJ3LZlWoJtN/wsKd54AbsC4PpOA5wXdM77CD0HC6MNXDO9O88Tci6708io/3Rj17lrb30D93dBPGn8ohhoUxYG1IL1MOTMgjv29zKbaW3v1lND6VIrwVYTVt7mulC7QdtnD5tvRZ8vREu3QWBZaweamEkPseQbwx/e5JXydSgOTHw604JV8Vp/uQrGzDi/+enRGfbkkOh7p2EyQm3owAR10vQYdE4Wt0Qw5hLrVVS5LzPiS7cr8A3m0xMGBGmmLogTCqx9eXxiI8wfxk32aCC/8Tr+Mtrtv3XX92HL57gyLe2iTOEgXr8tBSzX9xHEK2+OHhntixN4HZrToTWsipPW98eB81KgVA6hjcx62XiMBVXJo7B+qj2Dx0MsC8XJNStURG1OW/u8uIum9sBflfO60hhddJ1I5Q+rhoHk+hmnokXA03lfunmyc1STbIlPOe08wnYfGm2Qm27TC6JckZUFfrsR+LHBVIumVbPnrZnc52EzOqk+7s/OSsk9fa22H1pZTUkokHZy/Rkh2Ir1orzqT5hb+zRae9Pyqd5bOHvBuk8niD2lV2Ybnp00XT5vGkZVxYbxSSUb62mqT4Ouw8QPQtN8uVakdJ48mot2IO1lyE3SaOgjwfQrp6ssMp1OGm7mWRnk5XiFJ+gzFv4/pZtqSUMo3ElEME940tcU5qGMDj1rrs3Licdfu3JutTt1xg9QIdqYcf5sQMie7S1EA9xoGKXtElZHVCnaZbNAzp3eTaHnVhpFqqIRd76pJ4gHrTTLyXvUW/VlxK/Wy97Lhoe2ot8KjQ5uBAHiA+4P8CfwLXuQTusJQD5OETWhwAf+lLDaRUEreH2H1Ad8VYjt1gERHYGj15h3LrKp1HMn1DtVO0rEWuYsH2kvpk/Rijl7epmniWq9MZUuNv9wB2jzAM4PcHuc6Ossg/K4jMKlDyic1hj8Yeu33KiMMUWMqDAK1wKLOs/opNEEsvsLfiD50FNPKtPPY3h9DeV9NT+LEO24fzoyw/aXJUm/7z4m5PUaxO233TUz96iVpWfTJa6JR6D+94fpaeP2d8WPC9GmxkUe8bwaiFIZFvDWpq3AUD0fPQv4Hb1DgGArnhrXqtq1yyMp0t0unYocPHXdgaHcdQo6QZTgQTy4dX03kmXVUguVMtJ2jYKYVOlk/WpjorLEeTwyOI5K5fKkYgsNf/PX3BB8PsE6fz6SPDydY/P+8BAyNmDJ8NV50etBGqC+7xdx0AC4N1SDxQ/A5bJS5D0x5YeZWioozaA2PM00qT19u+lz4fb2Mj6Ci+VwjLnRM85TURD5N2mCGYvdjapROffBpBNX+6X+sc0a9aLLm6+TGVI2dV6DcvaiSa/b4O1qlC0ojnOZ3kWvNDIaIwU0PuQjBb7Ot0wGweovJDHoIqHTAp5rRRJUrve6cWV4M00HZsLd9ATksO/IUdf869CMCL8+V7B4hZweVU2tDhMB/8oZRHRWU5HyRjkZ7/9nW8tsUECusjFVjW19DOc5lpNaywZl+rM+vxd68CuWGEEq3TPb7DvqRqqJ0a21Z71TAJdCgh/m8INumtwgRkc1ct1CAvroj0aKSazCoBdQo+QlQXkhW7Z0T9ZKP6Zodw6NddiizVmMBgmmSTKPVKkYyTZ/3P9CkMv9+lgqhD0G6uOC39shRHIfXt8lBstmN9v2ZIEwupgvjSXPH/yl3U+jOS/G9b07ReFXjY9nee/evKFy25Zrz306EUYvdFXLxDFfscvjPhZWixaACxAmxM88NdMpvbLRbTWIt1CLktKLL3ARVG/AQKtz4Xi1XbxmTQ8HtxBqecxgZImSdQm/pbbgu9YBGv0vnRbnLcPUj/StH8c+iQJgwG3/Is96n6z5poi5UWXeoKTJTr6KzE8vtpZFiZ0edPiNXnWAeuGu3Xfw5Yhhrf8e/1bif66n4wEPxQNG8cZ0f+lQRWTVrZNTUfnZEijCZQ0stbBYRc56vbAdjTkaf6IakUny8glFjOb7FRHMlcrD4O7/CTkpLBzsq1PitlsMUpILNnY0oxqNDeIEAtID7g/8K/Qmxmh5SvjqMq7HHokhX6JOBTU/A8jj8RUp4yIleSBktcD7R6LmctKgaN5po1/DnjFWz8LHuD9xsadcxDRKSniUa6gUm+M+w3RmCw6jOSTLWS1ZhAqDogXVDQarCTDdqi0GKao3aBwPFrNJt5/vx4gmFYIASw4oH059gEhKCmoYUmF7T4jHzJ4WPjm03hM2KhsFtkeomN2wpsopy2DiuBKDjATkYC62dWTTzFTjGQSmR56JwRJtKfckgtrzPTQxQOYRKYMV3Ok0+4x0JVUxfFyfh7ib+DZ0EMn2lSFps0NgwUhPVP+PGAGKwz6yiAFLs2ROXgfwwX0uOg9BwD0l3oeOd5MITYKfUkyeXHN8gColpIKwHWQ2hiiUgYkeFoILI8gKHT+PxjbhIUtTf270ewaE75P1bYM9ZisJLCnjiMOUyzPbQBNc8g1/oNqkzQuINcgRaSxR2DKKoe7YS6IHd9N5rY4XjibmK9PMFqT0FGhtYrwnMnwoDzc26hS2DRPaOaqhkg1vz1c71XN3UQEj2uwuQxuEuGVffKRKk2aeJk7p2TtgVs8/skTr0I+EmuLk/nAZJSA41MS4nbQ5DM5fgpLRZDQ3Je1C0SwXEu0Rs1YTI7w83HHlME6sLfSxUYG95q4abiPHmDN0iBUqFhvth61TRcktaUlY69U+Rpu8IenV/HcaI9FLPo5rm1fNSMVfinFFlS7/6NI4rwymVB6FYNmkG63P0pQqwhPHSxswRHCDcEyZmL6Nzlv7paQNijV/fxWYGHSL2gzvZDVM2bSdtWhC4I+8HgUQefG2xQUvPU2i5mvguzBM/2LAKNCWhyjufXbIluCNCWR3gczGBxIWnBxLJcXMrL+K6msNjUCIQhAdnv5tpDk972eH53YuR3ptbuzJFZBlp/NSQHPJVihCg82bDaECNFDBXbIS4RTIp/hB0zizzwmyrmh9zb0vvVagi40saKCcqs8KrdSe5p2M1V/nIjMqAj9/mPO+CSHmKnfWzpTW58UrRyAiP9EsmgY2owcrcqlpXroJNUTawHnuhDsmGdBWvgYh5ZFv1jeiMKGlcdHVR7Eue7FzmRlqDripJtjwyfdkXVzLUroTWnKsnoMdcOjpWa3+8B0hJYlaAFw/AOJw27UpiwR2GO6uvW3Z8wqFcTP5xMPiKH4ar7QBsw6NDa4EA8ID7g/wJ/QnG4bgVFMlXsu2518nN+hwm9RVI/hOtUGhm2CnC4h/VtfhflQbCbHPHnPPW02QJ+STug/U3Jze1khDkEevdv6l3rgVDaZ4JW0DJB6nrFqp1YM3RAHvmNVQILQcJETK8M1H5q3u5K+f7wTMUSkixyljwp3sX0ip5vRGefFAYP5HxhHLpK/n/OLKNc6ApyXRZQyhAIu089rNNSyx63EoMT8lr7BLMhGTHMU38S+ZOd4tshHgTM/uFm58HAOYfilAa3r8lVOiQCGgWCVOWi6/JUnjmo2Tf2Dmx15enLS23vlBGmYDU5xEIflmJu9TotIRLK6NQBlo+00yKULV/YubNHf98lHsld9GcLD9HIcACJJ3379dwd2cTX2nnzKf3ek5YuRXG9eesE6Ulh7VxfxFemz/LHDCQWpldtEDY4YyH3rWlUo4OXPGLiohxsqPY0bKhkF5cRZBeJXYBWkiJyLNYUknQE46XZb7v4ZS8b1aFrGBf3URhc5MTt3pVmuKwlwGRnSsBZF4mb3G1vQtavbrbtuKVdMoYei7kpeEqRYh5kZ5F9luFZQB/fCuoy+podlOu4Orc7MIPYl51wA0GlvxgABttAuwapNwv3ve/Ka3cO8tT+0zSOM7KftKCaBzpsHVfZFh71IvkBP+CxhRHK2x0sA/5X2iUepEvKUBgNP2myFywhPcqFFlqA+D2yFMOqbB54CDkAp7eSFMq2nRSzK44EqXCgkb1Z8PbMgpt/WHD/rHUFvdAvP4Xyyz+cfb5bIlsJz0hUzAMgG2EbTH96KRVOlNKbVAqz4GXDaJZ8Qc1KT8nDw7Bumchtnjk11SElxc1i26hEFIsSDIp3vGfaHEHOG0tSCXev5xpH0aQ8pJJjyQloXfVCVBhmYcClpspqLpgWiBQRiLEKlagD2Lj4xIgIgBpyMxS5Ogz+cvlBXjhi5CAPDgkbw4JQUO3Ie8nOwzgu1uE50qMx7N1ECuCpc37Q9IqOqT1IIIHDJ2xtQJyt736ZakOJsADi+0OSpSlAU3tGJf3KHhK5DBfGb+zsvKLYGu8wKQ5Bt25HkFahWYUPw2FxMfaN/7VjMEvVAfLXKLieKYyV/boH9vaMqaS+lcPlqc9LPvg/7jsj3dS8+PsXzB9clK53tg5TuzidPV5dXsUmD40o0OVgQEsgPuD/Qr+Cu/jP8UkRtemWadldFFAxfBobQfb8jRfyjIqUTLZ9h4scEXK3Bh45JXu+Cow5IQFebgKOiwNszkh6D6ZQjkj1wjSilnXQNuzuJwv/mg7rKVoijnYjmwWULKW6xTmqtn1TuaBYliHCYo/sOErGQEjycqXtuwHiOgvBx2CVWuNgsvB3HmaBKB4vQ7DK/XbhksOZeSYWD9LwqjU/6Ex2PuKjx6/2vaK5qFcZanJwLp6fqniHJHD4xKgFY9RXV89T6ZeohtTaCZWa6tAS2LHuXT5T/Xm1MeXq2k9LIJUTaKuBkMPumR3pujprSdDtnekiyiLoyVlEYzkC1lu9L66BDCnpHlWlcTGs8cfBtU5N6gAYSwlHM/pt/tNVy0EI3ozzs17/R0itaSP78WAL1Zj95y5pg1WR3Mq8t0P3sijAnpBJni5aqVSN3CBh3DVuGWpJQJWGR2DV3/n3wPH+hj+e4pFlvKRCt5d5N/g5Kn5Dca12FFEau2kz8NXOIp14Xt8hqwpuy5kSibiXNkRegAouuBGxU+Boo27wexezBYv7KzfRvoSGESCqlHt61x5+ccLT9ZnGUu7gXP4f45ULZZQUlmFG/PF+s8LHE5l4/u+aqMi+RG3Feh/UAF5187eMDTwcQlexMxpOKQO3yvH/bRDCMPsqhHmcuzHngsdUtFj1oFtKcfwwm3F4tALAGPOrMPI2O8iy7rMHymbimu5kqLAB8/yn/UXMdTt6sBFxDI898G08K7MEjCMu/KAG49PgcL5zWPrqc7NQtPkP/g3mISN8kYvu+Yaa6OTfp2ICuMEKuWzEuNFmvEUfTaMInGnbas1A/mVl7DPK3GuSxqV7W5U/Jy0WVBVeCdlpeAIONhApYMceOC4+uY9dDd10uH7amI23Bs8chdCsNYlhx/6vqiPj86rlXh1vddSSrjFE0gg8Dw4HA98o1WUjvWShOAuflcghtEb2BT4CrFbZzuGDR5XMWmVGKLfoV2Uo4sYRWRvRHMvvo6oiHhMRHZzeaKtjVaqhar7qe36BKc6Lf06R9+enxg+n+WPONFbfAfBP+BrqZoFCcAJYZKmePNoC5WbWD8HmvXPP2e0TTbh0C43+r/Qk48aXiyRMLvJSVr5MzxIJkEfElSuH9mgSGFeAYcmj4fLhfwWlNKyK50jGXBaVb6pEzSfDyoKxL5FiFyP5j7o3SItktdvTwP4JNztrcogRIejQ8aBAWiA+wPvvEfQTLxld0er8UcfMgb0RDb8WijG+XG1H6iwgBfOccWt7XYsJbB8it+PMABrRLEZUwC7i0AbgkIKnQhv8i7CJRu5EbrgXceQk8GMcRDMK0ZZUulV9+Ff/JyLj2WFxDwvFsbK4Ovjy6b8TeAw2bcz6pHRkO4gpB15zLcPjsvnXIa2Ihwfpf2g+9TfgXB3yT9UqahsdRcdTrXKXEtJ67QmYiOvTs7flvfsv2WOUf+ZpkngmpGksddKZEfmcAN8WyuFD7nJuCNHA1qU8yUgAiwft7ogLUT76x+7u/G9xeKgATr4mS+tPoDld5I0KGDuiatvhSgCruoSKkc1DlhqtDpe/qTg5FNGz4VyLmPOsq0dd5xM5xR7MGTHxBOgp70suf3DhmGUSkx7kL5m/IIVYKXs1Q6H4eZOSqMfTLuOhxQEfvGUHTMwdptwXYTMVG7YrCQWpB6b91QNy8xu0geuaIEwCWhZdp3o0UiS/5JLCvkHuIczKeiR94mFSY1K/DIAXhoddf9k5cTsbMZ1HcMDtyV0iK2vCcBD2uHu3JBnkMkZpJoDFdDwpFH75REQT6ozQvD2vHomWZboIAXLPtBXAq7NCp004zre3izt0DOTQUpm6kR4R6ZFnvox4wWKZMB3bqKcUdAVYd5HpkPKGcVK1gxIeR6857gGwZ+ZAQjdSW7kGDvhKrDLvIvDgh6T8BCS2gO/e5AF3Q+zYykA5bpibkuJ9I5JSY/Wkz7TaIRbEbQBnj0tx0wPKOXs39CdAutmY7aynUrVZczy/S97gXQN2C3ufzkiGGJ1mxojBXql/1CiH9EE8HvOZ0CszypOz/8se3ybXbZ8m9cde2NHfUebcOSOUy92j0eVUXaHyrPnXKcCh+1kl5qdJxDp4S5IeRoeycjFYQYboJ5KiujvFrVY3QN/5h3cJU4xTKtfddEurOpJRk/z1weIthkjyWmk1YFKrUOAmnZhJhCoN0p76I8XCmqpVIO1C/fEssBuruo4aLniSlla6JFAXkLRgwV7TUyaXkbTbMU/6ilTaUcNj5N7dHt9Yn8Yo0D9F9hca+4XqYrTzVr4ezNRxu1Knyui2/Q0Qpq+dn9dQpUrl3xWCwHBAall1LQMX+/qDU+mCPoWhezlDCkNj7qGvgKIGndiGWv5A/q002jG9DPIL0p3T1CUgJ9KKTGk+4QFBHHc4VcOd9buwiO0Sjm7kvxEQwipg7Qu4AOf3kgoUFJAW6dcjh+Gi5jMrb9BMxa6WVlLa2RjHhuU3oum0qmzkQzw+4O2T3uJV+ajQ8aBAaSA+wNTmMF9TOe+xvZity7o6km9Knf2t1gzjocShguyECVosb/VksAyjRLB+nirhecgO2wDTBbSisvaV/3lAqTW0KJpGQjgFFhO/J03Do+OSDl3Mmu0gJrxL0uGf0gCqN7A2q59Tk9MlqNWLBJfckWKkVBYQ8OW3KeIWJur13SfgMd8I5KfNoDFb68Yy71qyBPvCTqnIiVGUeCCih7rEt2EIoCnRyFzTv8eGElHbdWLLhZbxJ9xWQwItIWuwrkgTHoTQIq0JMheDSyc0cRjGVkSyUvLUWnr9Tns4vDsuXeiTeOL/hqIuYqNW9bL6lr6s8OPSJi1hoNi3CUomJqcvBHOX7BtK+43dTPNRXbxnsUg5MPxHTTJ1Jsy/Dr4GWqzaKZyg4IKlcGW0PNvWoDNnDM50AGgy/y3bBKykOQhZd4txcXyt/FQC2kCgsYoXAIxOqX/3FzHtuYspOO7GdfGWuMKA5/+T++tFwlGAEPD0J4MJlFLJ2WWOLvniTxzrqKqbWO4sTinbbi2MZC9UBRcEMnhONAQTYrDnLE9jSTwuDoSYc2J1N2DjY1rOUZGltalCGTqPkSkUc3JnJVQzhm//aMQBVKbU6bcuDSsJkWJbRnigPCreSVd14MwmDMUMdvenFV4VUgb/AfLszRP4T+NrvBdCcmr9fLVnrbDtUZyhJZRzZdnnucRV0gWzG4Il8N5nU38+VxEuGEi2EavuLDHNrDDepLCTkQ7UCCpBo2L8/ikNS7PIh56J6i69PrFIelgIQHpmWQM6JV5RmUKX8qDkKX9KIqA5OAHY4ohd7K/0uT9vdxrPo7CGMUjI80cyej1LdgP9W/LW+KrLOqCbsfhnNseb7aM8jyu5tFH8jALmUgKPMG6Dwt8b0lh63xvotUsjc03UW9gc5pj0EWkDV4I/vE/0AvhAidSTZ+Y1RDu8OOdrLsIs48Fv23JY9ozzLEuweBVQnJDaP32w/rJ0Hb04iIBuS6Anvsz7xNd6hDe9xlWXhCcnMg08jYGBSOyi7Enjf62/ui4UDIyix86DUhDd6EC2e89AL9xANCwStaQTPc3DeAqX/tJ6DbWcylOTtrYOWvTqyoBorO/PG7WBcHshF35QRyb559ilUFgV+9iSh5JO4sgnbVesIQW2fnPmbwrFv/weEAEyZH0zmQg05pEfKkYoiHxkFZNqmz2YcQb2/SEcf6XpWtv6JUBNAmlGlzFIwnwiGYPXXCV3912MYNEhf+Tv3QwLE41XeubTsr6CgaLejYpN6BR95SJjkYllj4HbSD2ZomjQ9+BAeCA+4P8EfwRQ5mFo40NWZEs9MoNj4UHfvLEg8YDaRagXunh8/o/ZvqUe16SBv55FGzhfKXLv3kOMCvfghY0dpOwG00VD5BQHDFEDeC6SGwJh/NMa8x8hyfsJprLtqgS0kLJTQ5QGsHuWCZZpjW9wOur2tVHtSof7E5v4XvMnzSN2ilBj/Zrb2w2G24PekiZCi+hLbacY/btDCBgjvWGGNzngZse8cJ1NLguPZOFdKX9whlw2GMtjcWhh140ZyoLhuOgnJWDBPAJqfVchTkui+p4fbxh28/tgh4n1pcvCEXrM1UtHtm/C6hzgV+gYTNNHeA13CdmvPrfoeUY/8fY16PjPKuk74XcqGw5ozm/2Isj+1em7hI/9p7xh3GZEY7kUrCKcwErnYOY/74iYUAWCxbGHLtplF1cQfMq9Jq0CNMwO7f/sJxCkgHG5BWCTsO4YidYrqZRj6HXLo+PHKDeRtkt+q4YY1tThnl0P/f+PyXYL19hPfeKQEhEXGp4ocoC8+RzsbkMUXpkxFF6IBrsycuGz2u9ueOVRtUs8vaMwOzs7dM6BYSTiZ7OcpbPqxhEa84TCxvrGdsij50aJ/kJF5PA7ZfbnLUWcTrs3JenTBR9dlUM3OIbX3Kgy+y31yqtG/McPaRsBIH6uYdW8VihZz59xe+VfTYS6/OPIg1t+/7v+KbrN5xCdKrJGujF1wm7GnVMW1b1/iY1ij7j1tVHc42wq11+wU362Cgj00eg5gKtN1RqHsQ5rCzu8SRbJyuRMfIlxFycVmk/ZVY2b7iXGLhEtJB/fR0LyDATYdVRXx+umaebuWqJtSXXoJd8GM7fahkYc+Ry047BBmC125vygKb8822qitIMpT67A8N3ZE6shL2lVEbqgyp3vV47NzopEL3TnzhBQv2+5LzDcnJ4UVwwHwcS4dyY9+KGibO0eMnMlGZ63cFgrBxNuH1FR6Oge6e2NKiGFyPGgqgWsw6orMSRTLbrjRg41vrA0wIlVlMMr1scyLyH6xFXM1IUsEGHJIiJKp1rRVwdqsYR63Vj18X/5fxpxCgyePJi7GaAlgBGuK/biwqzoqkW9utzo/hpetymbyD41BGYPflClfXwF44UHv1eVCysLijbsSf+zuPw7Lupf4KjSxNzrjEXFW1Xk2GoTeacYkK0WOR3LaaMsSwY5p6gZnn7cqgQ5yM1GBDicgx5XuCmTUulLg1TsjbOzl8QOMdgWVt+X8L8Vf7rQsesiLnmpZyZwGayvjtDyiEfMuv+NpO3RN7LXF82wNm1b51eZDPsqJ/yOGsfYHFfc+gsGaIC5gA0jRldwuzoo0TugQIcgPuD/kL9KnR1qZr/PpmELq/2uF2f5iqoSQF1CN5ZfDm6x8PAay+djLWNDX9qVKYRFn7Rx/+BsJDVCtSWXEUX2QDscL8nvD1eRHLF4k3JKq/qpbbh3xN/q3fK7TYYXv+7F7L+S9yXLv4/jb9o6SffV3neHyb+KS/rBkExPGnzhxRqjdTY5iQ4743CjaPrnsYXZwCLzx1IBiNIRwp1AcTBHTB6XLGzCBBk1/9YBvwv/UmYk1xB+1UzMas551OHrAsghogk+E6O33//nMCVA07HrDmwnzyxKKjFawUWBm5sxocy5YM+e4TmvzACkBAWv7D5GzGtNA4AuT1CesI5+p4KQr3dKzoTeiO/8T6+dwI7WxoQtOosyzv7Et2dWZLS5+B7Xef06ayIQcR/GjN4sqie1KKwS/A2V9mFeenDT+Oj8uqwk+mmym/Gg9JscIQz2DfRLwhEMlZWQuj1Akmen2vQaoukftlTkOX/mIVTZxht1Y9pfXG9TmmNkJj0p3h/YHvf66pC2pWXtnNkE8MHXP/wCUyaTNC5pwK42M3sO1rPJC9nkDH29w7UUGlFJss/jcXJfcxLczugS2VW8aW1sfWwQIgV2Awvk/FUNgYz8EWybEhpIOzjPslKF2k+5T1QxJ4+IC8LtaDp52gpneG1BnTWNNFEt7wEA1C7OkDiENs6YspGR4Xtl+ou3N/CXER6fy3wLEz/lwmGn2Grep6evIpoZFWQvkMuVvtiLCHwxM8B/swd9xo4Er8FR3GHpxs8qLecbXGpL1bWPI9ENmlEEI2VNuUTxS7D1zqM2816nWeFJhN2zdpPem/6Nyfj7ecFFa5NcfOG0XC2j4tY4OKQrRTSSGWEwIt25a9Ru1lSEHyrrGxAkTH9ViOtKn0/xa4eXdgWjtPwoDnzZV950IQZclMqFeynMUeltb6pcymg3xtkw9jd8eGvRLbm3M/zbsOmqcP6hLgYD+rqDgqESsMYecPZp0xXKr9rDGhhhbCQCmB9bZtaqISSyFct36VpKLyYgNcthJNvQ7HQ/eAdXSr0GPsow4PryvR3fhFYUyAhSIqiv+IiBFxhTF1td1uMzwZYsPTMjGmPOje8tm++fJxspLKIRmRkKaL65PnFgx3YnZbjIwSeS6/KPXx7yTzof0DFV7B81uWYrN0OXa9MroTYB411HQtmWbWNsVI0ao33Jqg9i1DuyC9D3K5Bfk01rYxnd0wukelEqzbUTjFZRsDDmz4ca0SsRDt0DrdxYD5pNwJH0qMM7z6t2PEY86NUiu2YeeQBoF5h9YKU80UqOAujYVNymVDuEOf3yvgIA0P85S8+/ct7YaMJzwpdjikeTcfdTWcA6C3Ce19WJ54SphqGoZweeAMTt8vnsd6dcVsDLnUlJw9vOOFwdfAZe3gvznan/qylpYKNCmyZaadJPb3hVyhHwhaCAFqnOvJpsGaX5HgqKXEWXkW/J8X/48XlgNlyjxlScFyhvXZF+ln2Au3T6lszic1Rh5GPYi7gH68arHvgucZcyRqsELdy83ioXrT6E0fwTqRXo5JuqHgAAdMYQzJ8pCu9GkcKrR5VNrAs2/mYxMaNlC38us7VSk/jG8zpxSnsDcBs5l2U/JFKyW/4y+FUq96W8cQiWxv5iRJ0GKOv16gug2EnkOb2Vy/3NzJOTghSW15gsUTsNggfGECjQ9GBAliA+4P/EvwRtRgaPjwP1VsvVIi4WrbMqwBMhS6iPT7hWRFwFSEwDBTa51JcfHrTzlPDTqlxdF4w3YzF2M80kJgbA5vkAuTYmFQAqkPFdlmkNR/iC24ZmyvD1nIyVriZ8/W2k2vkWSD/qAJ56S6TSjRYtXSgwSpzbYwHAOyVKu6a4iBDrgL9J502sJ9euzOcrUkE2jRVGjAG71XW9aMR7Nmd+Xo97VmBE/vv/vcXXMuJrOT1OGEfEt/PiLdwrXf+URMdscaG9M/hLMZKEDnnoxK8bQJ5A/XKPb2iB/26MzJe2V4Xxdt8rJQkF7RIOOGbCXU3I4HTVaVL2bICr7aJMloK5MOEQHd8X70ZEZ1NzeGRhY35a7Z3NQc+eD2Qq1uoGNjWRizCR7u8oekxbxdhBT2Pn6+Wndf8/5La7EIvX2zVTg9rSAZizNYTXrmPxISPtOsi2nD8d6dKxaBbpOWQho93LAwhs8lOBqXh/cNbda4HmRhctABlhLOkj0gXHFJ48EOv2zfMXiyZ519HSAUa1tvhKpfQZsVH/TQl4GNbjsg87AoZnNu2+sDihdd1Re/eCTe8/7big1QjQfzgH4TYL2c7Co7jFMeGuftmNrmTsogCyL7z9vjxbLcvZoP12bPOWPcYbqbS8t/kHeyxMl/1dYZhXaTf4Sudlf/A81HdhdddNIeWLKxwKmiEkblJW5i61GI0XxPwScHpCsvJ5vI7lfmRBTdVkU8OEwRCG4AM6zSDwQQZROVTcZD9cw3tsBO12pedjVyq5XES0nNnRvf/ERKFJS76PjUCjmX+mAct+IBVH4wncnJq4Zsr5lOfUbzfFAWS0LWbIndtfRGv11U3jvZTXY8TlrwQpgzWTN24Lo+057XP0bg9K/DO9u3r+yqL8aq/AgevPYcRO0Ee0SdLO6ijOz6pDc2kEyIkr9CnXUY5janKuOdbCQtW18z32C2FMkBxJMpsqpPyP/RZHrbapXHRh1ZItBlWEHiAFJ92ZrFaO50RMycIuqHPJaW/d/jQIy5NRoRRIQ2EGZWpSbzSIr0dL4ETrjhbTds/SSPBIa9Iv5WzA6KA5UceTVKvEG+UqzuvSMIPdKuQEbTPHi2S+GQH9j/hdpgTt+FN4ORZ/Zo33+DYOm/26O3Q3bDwIYfUvNDtyi5NGM40RbDtH8EJQUUuaX43k/MSH2waxAk2TtWGzmey9axB7z3UNf3kerXOh4TBGO2napPomK8NW1JhyMvGlOAkwpVdl/2yZNn0hRn6F9sNfEzVaVJIEJOPqDqghYw6eBblTbWGg0fFGaoGj6NDhIEClID7g/wR/gh6rXdqfXg7lSmNrbFMiWHV8S0KGX1VznV5rlRYTSebSR5FZztoowvwemWo5+KkPnWvF7mSLs9TuplTkJ4YbKhvWC73aqpDhN7oJD4xezVXho4zlfOEYtym/nr2awz8laWER3zJAPVkh/odVuBruv+kNasTCvoL0PYV7kMGhyM4Hbts+ZOdJJhwaGF0Ox0UIL8JvCORm24g+ys5YCrJsDRGwXbALU7LyqSvImLwesrhrj/JMVSQ+4jtQWFnMEXOxfCi3ZtdEev1SbZxh77GH/e+kyw1uCZ/1iS+B4rzgJ5aylXvVzUdJxqfUrhy9eu0t0suLSH7psZtsPKYb4iWmErR6aT0EOnmU5ifcDh0L9ZyAeYpEn95f5JqFhfVdjyl8/t6a0MEidGR7yCST7CIdqwM4VS24bGCHn9anqRtuPFJyUL5XeXqxs6ntj17UUt8wqiF9A4p/WcZA19xmqjuOAIkLuRTuZJA44uHWYJ4pDvE1MUDK0C/5U8ckJMjoI323svKc3fRXIIpccu7sTU7r86aBdaqfkH+X4yIlOOSpFe1zGNS/LLs6wZsjMnbixAgM6pHTXF4RZqPV2WMXn+KVzaNUBsnt+RbBNZ/MB3mT2jBK13Lne2rMb2Tb5vYR20BLgbMACrbGYCmWHos8BKYEFr7RB1NHitwrSFxjSv8gKeuVZIOkru2VOHJoCEkQikBfTGjc4U+7wFKj5c9QHwcQitvDTJqUFO9hmn0965tXKnUFZDV+GjIf3LaWN56IjYSNhxxwGixgFV8lPSxe3GZITaAj7VhlYo5s+TCBfxgt8YW/y+UzTQ7hPv2V5S7yXq2F0xC38HYJKDRptWCt4//r8wCPKXxTS4sDrDkA4jz9XdLzI+kxDUYMY/T7qYe0F8JZay8QlZOJhkBPvooU+qflBvumoJP7Mz8FwanbsrwvWCU+oy/sVglQDfTQFjz1M2CiwP9MwUOa34MAHg8LkMza9LB6QXtodzeO/UODmy0TS641KMjiWOEiwVzMDROVUx+8azHshFB/iiBfLZ962BvJg7DoRw5sigN4W9ndphPaLjf77X2w48fiz9+TMYxrZy2roFPfZq6spbhsCH3hcx8HMn6V2V3pXwAYswXsKpa2hlrLHytNoStRXt6iO3qjNIqWZAHIWc4f6YLksOCB3zr+E3XXlm4Td98H+tzfqNDZ4EC0ID7g/8I/Ak+922CsNjCym4i7RJwCFnrClU9004PE3Pkhr2xeIaGIJpX4pGxIzn09VI25ecrkn5rA9axaS5LvCyEigcS0Plmwua9j739enbFfToCcjcsNdFe0s80OspQkJgDsASBzxsQE7QhVlUkwJIP7bXNSab9D336H5h8tliFFscMz5TOKScYPYxVc9trEvuPTXf/5S2WQa9ljmlgr/Vc5e062MrUiBOGtUpymZEEf5YA0xrC/Q8xvbqByG2DandDhDMTuJ/70vqiKbUFT3V9lxkkRN9dL8QKQy/WCl8GC0VK183fxs3UQ0vpLE3OjdQJ1D/5Y2fukJmZx5xUlmwDzkTr6la129jpDDrmpFoM5Mf59mojYNAMIvA88sRJ5FX5fFESEwOg8LdpJMCWX7nKyI33Mot6+0xrelmEd2SZGMHHU9zrChbZmXU5nxx4qRsEL3WugGRGHPRZaTvotVmZ/YEdHu1c/oWzDV3U7Ce57dGw9Ls1CshhNtlVCDe2otz08FppCWpoFKOXq83/MLtmqrcuF0ZDNxem3Ui0XeE2DZkkDD1qdb2RvfBWRVPdRFC3iPUfAgT3WOO1fSZZe2tVPXM5JHGwIzSbjQdcfk4MU6l95GvLHdGsDEVd5VAtMheEY6lHK77B/XM7sDmPdTld2MetoCztmeFhMoibimcpT9NNuJ9kvdaTLuaIzWrDpu3Sn+9iPxHLhFAcVGvBrI3FDIajWuSFMIaU+ogb9GgmDS5qveXbiAjbNqERjxUG8orMqfP9ozfxvML2+wxAFJyqhMP/RHdppOlzaSeFH4QjIWP0EFuDFHOuKmS93n03ZgfZmBUr0XAPI9Q2N1bU9CYDPyxcMpj3D8yIQjd2v2Xbd1yKGswfZfBgVwlbgAVd1mftVKLEtBoj/BZdexk9m5Ys7b0V4LfZcqlZX0dWB3C1VuKTvmQtMNY/eNJTzyFR9ONa8+lRCwbtFf0KpbayBDc7lDUQ3j+suM+goELicbW+7c07kdXuOA2PYeV1BvQxV1W5oFfKXhpUXELfE29ybF2Jx2gOFY/LJxqbnbPZc25oi//GU3WUdbhdZmG2F/Cp6oGdduCuNHI5j2B0jGYLnKVNoehvG/RVrFRCh8ErlYOnhIldXFEAm9twzO5OCjg1ly6nHh6jQ3GBAwyA+4P+Cf4JB0wBw69/OzMfkSGmR16AIMJdPnn5l9FqBl1RnitMkiuCUo7xVa0yEGniHrhTWotIdBnC+xP1gBN3+zP+WsZwFfuqGr6yJzyiYJrED+Euqnj1z8F5p4EtbpQc93kNpH/GuBlNcxKYeOZ8ar3T0BD/K4XO3mRMKvrBAqLWxpBzQAszZNVGbiqok2vnma9B2J67ZKsM7hzBweEgCxljsw95pegCbaOtJW4BSsT2fxqeEHjrPW4cH8yNscxLX0J24wLcHAIE8nsEalfpnhHMgDwHDj3sdttFVhtiso7CL26hsNiBPy+33zGZqHJe1kxE+U6moTRXmQsQrCl+sx6AsIQmf54dq6iQg5qmoGVpqGeBWABWXssL7uYl0+CnNUUGxp/g+VoITIsU6I/fNuCCowmkoUSStVRv3TW8lLaTQhOSzr6R/pk8zozt3rqY3X5jmwg3RUSv43+AIQrYIm91ROL4lVgl34gYaqaKRMRorga9IxXVoIR6nFIKJbQRGJ9WXec3AqaL8NTibMSdqeQ+DdIGrcgKwgoVTTuT0YxAKo4WJo3skjHR8N3cDwlPD5pfYXX+ApyTA5XmraBMwf0wdLAo0oZGqXWb7I56+1rPRy631/hus0rlh8sHwmjV1bkIRSgd5qMib+lryWm2Mb6zEr29cR1pMNZUSfBwiHYybl4iPsTDGBe5+gbtd0BcCjVFnA94DzypxD+ei8vVD4nVMJUc5WvPV3J/dJKYBCvo7NAdRB7mGdTbP6+s6J62y9bjcuZys6p3yRMNmX8cveWgGZySYLgXgkKjODmKKtaQ5S7LyFYHDuSIm6fWQUVUGabiv7qXv9nAUAewFLL54Lfms7SASZlOSivxGqmvkKil01+bHwQ2VLKWugC9OizO6o2Jm5SCYpgxsKX46L35Ys8DkshWleLSWrecrHO4f1HcGPWxlvNpKYCpaL19MLAOmyH+eTSZtHyrZwBk162AqOpZz0/G5+Aufl2OD6C8kprmdh2A9+6nqQJ+XHo7bATxs27MBxvf7LNsINmnkmwSjXn613b7nsImDXwqs78sUlpyNYAP15BwzPjb3iAkKPwoJP00Yr40Eq8Hm9RGjDv+0VGL19OvmrxcqPRucVCtWE3i3gkPtzyD81pLCcgCGD2id1KBLJHr33/gYus3b6NEzIEDSID7g/8n/yp9WCeN6mrAJWwHYzCU3uJvyawMR1Dimht+4S9sfhQVwxuAgAI5TAWQ93/81vUVyosl0P8WbgtGxoZXG8N2ogAGSMGwRgY6kUnYEIlXSDLi9tkCHegq613H743zezPKL5Q6sXKowVjUrv09aDeO0wfTF6aPvciL7Z0XSEOt6GdZibhLpYfXCHUNunwW+6F+1iafVs3Ig9wIcRcIB6DGMrtrBvKv/Wn3+6ytkI7wEpPJVUXmW3P13FX0KTqdkX89YDSOOzIa4Wvf1GAEgcHsNVmNhwSuzsoxi29R+y0ZLwSLT82B2NxuEpmIMtVCkx09KJsUZn1UVTaCgjCsKq0MtQNPg/zbwgtr5UxCB48N2jxCz0prnRpmN8bnDZeQpyfAkikKFzjB9+w8sPHntbHcu0wwUyomrRrE2Zysj1zbbpQFyTiGOhJ681NBF60yRxrtQEMWygQTXdgF+OPe/PMYRRZvhtiqZ+CFzKXKWQVC7Yb0Ni5K01En068B6890VGMFNHtFSaFRH+Y0qSm9gd4bbMTjmhiqvykBETbCRjR4TbPiMMh0DE3sc2+X42QwgvfUYUHK493cFeSowN8G3HJDR5AtFwmLQZRY3Ihsi8QTpdrzxGYWOeUUwkI2REQilOsXEe/Bnd9avHPBHRJzHM/XcYUQvGpihhUQ1VHqVTlcwiasVYQFEp9SZIML9Ay+MTJFNx6dDJUlwUi78B2TcXHW218skm909IhvkQgOMDKxvwYc39mCWRkNTkE5iuSC03us1ouKUe05mNOATtJTUY0XFhFBNTmIT2Fn4E3bUOZzeL1rChHVjpL/EYUz7CbPo91PgPq2XvZpTeahLE5lks+850tzad81LaRwFO4pyvWrN33D8ltENcBzQ3XWZUO4LDLj4+1I3i9ps52FKljknGfowjpcZSRosA+ggY90WDvlEmUqYsr4reqtE1tJYXgh/BCt4CY4BmSux7Poxq4deg6SFrPyW9JZ5EZMODk32lghO6lUJ99HNn9dApYbgQXuRXTMVJyceKsbIm+TdzhLUoAX9Ru217IsVosGBOz6WwR39S8SRRpdpoWtbDQwQ9ofwG5xOwSEVVY2+pceRFF3ddtxl0B8zst6bulSSnKSZRFikWTwAxGbuR/IdH2l9NpeWvueoiJ54iEgnAI/YPmwlIEnthtDtjKyYVbOWGNCjEXXvuq5bdRUyI7wZyd/w7WZs0lyHyKOtBhcBKgRm5C+/pzatSL3CIiCxK3wKKVM0UW4fzgRJO/VkumuJFOeAt51xW6iVeO61fmD6RND55oJj7CFGemh/xOZrIx5rVbvqcHnRA+4ilOccP2nyD5IQJkY9CVV765rDBb4HNZObWgLpnLx6gTM93foDF5Bexl8LzW1hpUwg4lEq4W6C6haXY/6W4Q1joiHpmTpXOnOyHn9Bha2wRXl1Vortzx7uDHiVeQjpt0l2D8g3ov4FKtWCWdG2phVdAuHXMwpgQ+MDqksohQgi3GqxxXZDD1XFv2zOWp1AMs/ALkIuUyn+3A4lvoY4DuSglgt2fSI+Anz5mEvH+dMNsZUWWU/ELyRTVG2k5dFj17dSj1el5HKlFQouKdN36cQU++VCAQfqCxuOsSUpI7jUFqmRFajQ8aBA4SA+wPfJfFOZ9SjAYUprGl1MT5Mv/q++M5vFnn0T+KI340saKpvU6O/P0ZFLxrZ2Eah0mmfOOy07fLF1Wjtu+sBnyj+vefKVwpCekT4ZmrIKoxSeX9WBMQ5n4m71giqoR6qkKokIN+HsiySp1cMRpR4d0dCU5ImMFRg+Nnj3xlqMbjAsFACYRYaBeOFa71AaWqSuvt5Iem8mdNSZzB7s2HCwNZY/J6xAaeCPfuD6zSaTIaLHVyyL3DbkLle5czOCajzIvGH1TUJ+42NLRLronYpXz49yDXnO7ifD2xmo+ZZpdiDz/gZngnC4dM+J+2bv6xlm2l/bqU6z19QUgdpXG5dvTO6wDgW166mnsvaJpJpKz088hcHlebUZAW9wZzwGArjjSP+xSa/eyqykvd8u9dCKq3Dqo6Nh+WnVufY6hGmJft9298zcovFoZY7z4lSFlXUeem1lLXrAJOGWxQvgVt9AZfN5tqWeG9yoKGPA8ikq/EhIVoA3lUvFjAXPkxAvy8Fv8FWLTtQ0GpFAM4AClhNpwQrp+9wSW3Xny+MkC49afqbrbsbK2Gay7zSvEKoIdnHE/7PqjKZh4R3vhyZgpgKQ0zkqltAgAhRoZ/PzFAYOw7DZI/F649ZC6ywwS5VVzGOFmuZS+VOMaDceRo7uOWfEvGl2e/Dx0Be8Yk4n/Nt0JA9J3Esq5mB5fh2q3rM9NFFe3vSczfBX4tQARWDHvTCLgvqOerDJycqqlsw9WWfcupGayJgG+U2nS+kq1xWIJSVPPv4b/hS42bF/Oz4YjUm8YFy5dZM4O4N9wywddcbE3J99Jsf08QjTYR06fpXKR8Nc4BX/KXFXN71CxcAewb/L13f34Zq00+puVp0WYlZ9HXgEd316k/HiAAlssPfgkcgYnQQBab3RLGoLja7H5rCUexOD3t+yikdeCNEw9pNcdT5BpFccyu/NwSjPTgen8x1xb8xBc2vAEhoRvHCtAlqmrtsFG0CLlmyQ679stXlR8szwqSSA8q0w7zXFp8cuw/WzNct6ik9g17lOcAIU3GGFJsjMuH6S5dXqAPG7BefxkWyO56Bg48FnHgmte16Z5nFkvGJvjrDzH0pRJBuxcTy7gYgVNghYkYjDWfEQmd9/iepUqqaV72i76UjnXdp+xdT8ZSI+9m1dffeBkj0QlROCBmkzzgnBfkxUY7nXXZRZtw5p1DyUWEFniC74Iwa4B2a7r+UxgiFer8s3M7/W39qlPV6Jf59BkPYzLLiGE47SX5yPDbYLN4+9JF6Vk8+rpM1G+ajQ8aBA8CA+wPfTj3hL3Z4/bzrXs1lIggU3prURI/JNiEPGN8+SRZygA7C9AG7Nx+evmTzOzfYunKq7oBRGjqa3HXiTRWZewZPTVmgWrja7UqcWZl2C+XtKiT2UvjaKqhDZmQyod0KEE2TnVYCCG+uS0wmAJy+ZYAGqfCgUrBJIOxAkrs8t3hYwQpMiB8XJQbvM61uPymIlvJbDZUmwtsFpg5eyitHvCHBgpVJhLpQqohsQI6Xd49PBUgLayWKC8o02TmSueXDz6oWFwK6M+weTjFo6d1FuOE6It81gcgtcvaHMc3rw/G68Y6b0vXhNfJDcFSk7xAxZzacw/rbP3pg+k69k0Qe5DTEts4qMeqQ0KaPGG85anEpXa9Tk4UTyIhbQaILfMxJVrnCbTKG7nWoZL8of+1ib7TJ3O5yzKN+8mkmyfAKVLG07d67bFxfnjy9ABdsW4Kuzzv589aanmQ/n96C2lQTnhvqdsh8i/Yyu4FynAEYrvx/6s1EH1MrF8M2Rnw70fKHi1PYB7bUYQ6YS0MSPUbFtk+jp5mYOGKqtDe08kIUZw2psk0cBGOiZrZjf5wi8XVPEWVOdzy+wNJe53fz5ucVcgRHGvWHC8FbVOVZK2C+FZCprf6bJmLYStRWqfaMOUoeZCS8vUVUZaN4UEQho2Bo7YNQ3nnhU5KFutjKv1OeDr9LZwcCZEgzeh3aZUU5cIIJYxZX69rNDB3nbOdYSTCoMU572pMMQL2prGK+pUiKg/gy8GI0xr1xgJ50N1Uj7qMOnS7GftEwyhHHuh+1u7QHFTL0X+tAybiiWywYZ5xUUR5Naz6jvP7X/cp4D8n3O94eTgZwA4724iz3Fnzep8Bwh3z7tOdHVyQLOSfS05uX1Jgb/sl5Y65PCg75Y8iexqSjnBK2VKXYF5AUr4prZZ8VWwQL/2gYA5dLSq3WsOtCqRHjnrST9TM/KriFY6RC14VmEy5ds1Lkf9AM4gyh63mgTvJ6H3tjZMu4btq16aOS6NADGJjVxgXPisip3f+UBqYBTLe9xj0t8d7UlDrMiPR/z7uQ62phKBVqmXl4TfrzjFKtSpJ+da5AZbWiXh/h2VZJwOHTT+CHdnGVE4MQns2BsosJ6dt2g3qv0EeS0sW/nH86xm6GoJjK/AkKFt53bWxQuK2jMrIOrZ6IuraMTU2ZN4h/GkUVX5OSSJo7q3Xp71p8yIFMFLzXohuFUV/FdsryEARu5UU+fm8kBmGHCkb11AwSpKceIiKTjd0maBvFm1qOYikkecppbtDDIBathXruBsqjQ8aBA/yA+wN6Yoep3B85VESRyXtkmKLWuHhBM5843KJ9ct3WKJ/D8ZVClGvaC40hORQ4hkPekRS9NxyEi94HvP5kwr6UPLy0p+0NT68oC9HAefAAAI7bUtmBPH0eM4Tu3un7VstD3q+MIz0L8ld6YgtJlsw8ba0XpEPNnreekVNmRgXghluHcl3ioEAy9wPBDv7EwjW98OO+v+myIIvVxii4UpjCSWZSHMVZrI1xTaY2xwsKLk3mCoazn7TIwkAPnRnV7Db4WHhng5VHhgGB5UcGVFdaiL80KE9g/tHz156Xbt0xXKiEU0RZt1ocmDglaIHf6tNdBkPqQJbk/UgaHeE+FnbWDvzInJedE3f0Q5tHoWvwaIuXSqdRCqwCOttREmGNyQkQs9A4PJD9aR9cZncW3GNA0NSd6J36vqDnagKwMDV0L/nso/SJQih0/4UkVRcQGAvw/Fh3dIcMAkHclhcx86iBqMM24kYimlKsFtr469fDNWOiP2FPkWKtfOEYGeDQCo5minr+HTaBograqw+8gydDjq3KBxImpP+KDNBw45jGRqR44af5bAXOqGC3afmd/+LxkSkRaMfN1O6xptltcJJipRanBcNbWaX3LAfKDbsvcUkxIBvvuI+Bh1Y1K84/R74rXggOHWV6sGeoDWC3zD3xOMPuAdWX7tSR8mABhDL09LwVx9zO8344SaoHii8porApQtLEHVIwpXq1YzczEmSizDGYo+vZ6kvA6rDnmkTG3U2Im2pfaTC1+4nIM/MmjHWp3XtJOgbfl9tkrx7CbuKsrpwZLsSVrPJ80WWRmmxXxl3/snNX8qKoHLGXnflpvkuxHyliRjJYXY/zaf1qoVwRUngY9KMpuHUWfx6tZeNlDpsoJd+1uV76hFs40InkEGhLUVNxHX9e/IsZYd0FCBsYeDel+NLJ5kDy8v/lTadkyMo1rEaIeSQYBXqUDxB5LLjVrhAXBVp+l9tYZixriShT1OH05w77/HJKFAHTz1xMJ7siZZjhNC1OCpJKf2sXDfrZePqZxOjkZCfkrbumEqc0g8lMLrCoxo+gbxzHlKlM0lIF3sgYuNxq9F+1t/29ulvqR0VeUlb3qc90texeG4j83c3RS4p5JWGcrV+yZDaK8hzy14UVxBfqIjwXsU8wPp9nxDeYSKx51NXbRJ/AJmsfpAiiUNURphqcPv74/EFV+AdSD1PoRHUnQ3kHaKut+vyEnIWv4hdGGFeQ7s4q7CGN7ZB+fgaMpuWZrYZuTe5eB/e5YQGtbwRWdiwqGUYgdupDuB+jQ6aBBDiA+4P8EfwR9KOgadiZ78RhrO/sRS2Uiq8A7plFe0qaG4SKXLsBBosHnDgw6yMNy3k2cg1G2OY3djLWSzA1mUkVoFtA9iJtPwZrSTG81GD8dwhxqyTyA/NwNgPNnOJHJ8902HND29/0BBipoRxBaFKIO8m7vzI9GBTH44LA7ItTl/uNv3Lav9Yfl5baSJcqHIJfI+mHXf4MyLIJpKFb04opXytj1FQOIkitsLkzVLdOw91f5XAaO/MERqDhNKy1W4xuYwIVdVVE+EyylhROGKUdVD0abOIQcXGlpIFo6Wt/6DKHoOTKcbUEJXqA74+ZqjqZr01u2JrowNYd3xlQ5kooeaSlkrlitV8DTP5UU46d3lz/Cq0l6+Xw9hS8qwZIgW76GHA6P2Mma89HbYhN3eLFwg6U8Bf5GUkDyOhsoHhJEAfwEKUiSC30htdmPvEEtV38EC76Uu6y5ejUq2FTtFK5YItAZqXe1qZIpLX0HP3AmMpApAnJytAmbX9kK+AKQJ79YriLFsNa1LenX9/2gxN7LDpLEAmqIZ4uhKwD+eEJzSxNvUOqFNYgWk1ReJIDvq3XJGIy++43ofZiDbIUsWPvkSmS9Vh5O54BEsvp8i0Oyj/vBR1YuyLlMbysK11rWfsYGbs5XsLwQQNjS0GMR3r71mj8M+Yw9cEHDviQlHfVnlPit6D26NFX+mgt6QWd9r9LRMILpNxne17QNOmOmBE6BsKOvD/BLyKfzGJTrTgdRCBlpjrNIWLQaE09FKbkkj0q/a4p1jLNGKxKyTeZOLsqYQ/P7QHym80MiiX7MSiGDiiYRrgVBH8nBONvaKoYs53Xeu1bXdZ6+ABCu+TmDe2rx9P4+bWkLgkGEPo4CodPJlMM92sgcQEc/xlxUDbvG2q71x8ueMrXnud3b3wKL2DxjooY/km0Tp6APYIyBUbRHARVQcfNOnsZHydjMp1gTNfokmpis+zC/sdGiVRKLHDyeeVCOHd5C4TJy8exaCikiDei4tu8RZW09tK3PhRS7cYis7j5oN9q9Brfw6OjbgEykh+W9+GW4lcYF6/7Mtnx0GtdV/bb7MQ4rUV6kpexKHxfExAVDzG+hNqifn8jYGzg2OBK5m0OEghsvIZGmsH9KQBhMwZxzGcBjuRWA6D8OjtQ4wjjgbPZQY13fRuR+NLSx5EzjfC8oeRvT//aVXmKQdEp6snBEPWyFsX5NE/rPpefxfEG0m51zWJ035bY6yQ/R8I1o0OGgQR0gPuD/Br+BHnteohQiF7Pev30/TK+XrPfmiCkDLPKpZEKp/pXyLiohWvunIqOh4nLom5l/5siMEHRPMqyicMtoVGIDNgG+ieeb8JMVa4tWs30zn/MsEmrPY3LPNRjst52BDw93mUSwuaqwLODOaI60na/PT550VMh9Z2A+04adsBznoZRkt5iZtFaXukiKWi2jq4w9EsVQjcX1vK1DSs0b9XUbMfvonw7QNsO1JyOYTWQ+Qt0gR29wOj6RoOnURNGmSzpvEoC/nod6aC+YG+N2aitDkyzvf9n0o9T+GWzudY5wrEnd17YrE7JXO457LZ57oRb+pqk+KO57vp/ZiVq+ImiWsd5r/YGqKkXJhqtS7Ln12zXV3/Uz1l/ahK0SCeFmz2jn+2i41omeY+cJNE3MTMkc7jljhPE0o5qg0DLbAYJQdpzrp0qyYjo7J/8GTMNwGSv6uf/JF8yvA3CW4EZGcGO/PGYCwK4jP3ARGB8cWzjKrIaQZFbzSESRk+A5iSYLIoKMqHtCNM1E1zLTBawxXGvZmq+0+3vGqKlY1wbZ8xPwxP9Zt9Px5TQgK+yikwTkjHg2EGJkKBoN46/Tbe3QnZh9LHn5B09XbrM6Qw3dooK+dlV3ZIpahPMQZklb+Bqs98MqrJSq00X9Z9UWiXP5gxt+yAKWf9DtEVcdjZpzVmx6h97f40ZekGyuk7iAFvGV6EkpL5/xSz7rpcXDstTOX3o2KBscVbXMP1h46nEAtMmtkZ1B8YWvRmYL47siHo0sll7LohfE67NUi/QAIf2MyUge0nld42V9G38w5UT7GuC+bS2TqI2C3uPf1tntYAANqzkvO2+rAH0sZpx1RX3hjpXT07wMkNR/AMd4j/OXiuOxjoMPfIovyMoDiiiXD9CN6J3H/1KuvDox8Fx05hi6546pjTRIoYXLq8SoIKuwutYs36XlPgqoOyUlBaBN0FgcVe3EHEW1A0PCcAfKEkqI/8YdcDb1SYXEyPaoc1blGi7EXEFpCL/fk/9lQQXwZMRht6tvN7jgdlR/RCHXTPfAV4HQ2XE3NtwOZB6P6poEL8P6/nUSuET5I/Emy4eneasor8nx4JzSW82e6X+Q2Y6nmG54aUWsFmbvaynv4egBMGD31LJBqpUI+y1uEGrHmwbbtM7y9T0DOLXYBnK/JnSm8FT809pvJRMlXYzxYNBgzB6es+jQyKBBLCA+4P+A/4CsZuuAbHVE9gVhcwHSXv55fbzB+W/XLWZEY56BWNk6qDJ5bQwWp/ItNN3jkujxHav+cQrOyT4yJdHSvQ7SX0yUQ+T7P9iC4geMNu27z3pslIrHTWZahCfzFjP6+5gR88HHou4hTGlc18vYM8ycasXNR/8oCq9QuAniupq8eB87MmVjCTus6uYN1r3pxgPH7y8TBqlhUuu6psJobOhyZWaoI3QErZrrHlNlXNMfOMA/FAOjQ6rZ99Wqhi5/e+QMEqNhop9ygm0yITwVIzcRV/iQQsFNKlqNsV53uYO4wC/WDexe9ogwjcLeWgYlNRiFlGuP+Tcu0dxgaymCKJVs8U25/uX61kBTR3VasuvtdYT3SrdTGlLLaWzDIkTQT5ksmC1q2Tm1ey/CAkOVceYFjpTvDZK+LQ7Yw5mkmecrpJxg7aqa0vrVdFnbYS+Qmmu71S3VEicqjWmDKK34ZusQKR2KXUJh9ttQXl+NYb0+OwUo/OUnYgSP40aQJUx+7gGcID3V1If076xtmkd1+Aw+gDvSQEpBuAtV5+2LXR9L/pf4zlsmx+tbMh+KtNsOABLdBRsxZhTTDNuBCn2+T9Tnb8co50Lhqn88oTZK9k2aSzsUo2v2jtANOE2QzlOHFJ0fYvkQgQr6cBTvicv6UISBRBJ1WODBs4pWdTUTr5JAO4Ei8hxXN7pyge2RyF9EN58ikjNWwh0arueohJ+29RnbSJ1YfFM4Fn/vRrV+Kyg4c96bVp4Om+4UZd9QZiU5H849wZBmPf6mRHLrqpQ2q3z9zquacESGZJJr8fzPkNZ9SqHPRxzjXqwR2y3P3hIQdpYACL4ffowvASCBQZ1kEA2BnknAs9iZR1ZqrbSL8ZM6mCGGiouD0+4SAnRUYdRNP9uisB8xOC5VROC5oThvTsbLGDYtUcchirFoCQhPsNOQzXoXcilYhIVhefcjgPjza9gT9xNECg4To7yu9EKzl6aEufkrmN8SwZ90tYXDo+/qZa/ko8P7zNaapgXl6WiQ4XMFeahFAnosjXd9XtytrOVa5u5mM+ZNRcV7Ujio0QrgQTsgPuD/AX8ETwryyfhRwpvLGNllcfYDuz4pRIsZetvnI0myGDg+/eIMxpSY6dCVZnK2FCYPNroOtL+PDfslovTwJclq1mjJZ5FHkh/imOB8sUTRmxo+D3Grg61wKdnNU6EySLTcmyPT4u7YXgAaZT8Z0u6lkmFs+uC8hKPsGrHob0vYOmAGOdvyO9GZIRBwan1xl79YbsbOiNdx+eZjvWJWqOmSe1vKijPRBr8p+n+PF8J2YxM4gII4YLwYNuwu3MDY4U9V8LTGBZr3sPl9RdElXdMzm22ArjNKdqTQxWPg0tTT/olMnc4ANBZqQdUXs7ozNLvMCSTh3x94Tr5XpPA9PeIC1V4OES0Q6qj2XVfjF4R5vWU2DNDWtT/P7INwtuVNPEhwouYmSzyf1uBNA1uOuZt0osQkgPZIKOlPME4l6S9I5u+OgSO74RvlSrR+nn6LKAjBkZVDLdaeCfac0msFjuW7uoKm4phrNJxJ9uHaD9iWiFieClr2FFaQQYPL3ltc9MeuyaxRqu+FDpn6xCDn9jDd12K2pkBde0zibxWkEECYRxVyig52rRKFpeZ+KGM0hzqt6/b7RK1Wi7QA2zOEstVwmlgULO7kRk+gRX8Umq4C3FSZN36ZfE5eD8v4L8iha+66JKQCq7gDyac6scssRE7owKvr+XMAAr3pdNP70R/xRMP+iX+D3wE7QFI4/VyA+34ZCHqwsDisdm+0Mzdtbqc2Ff9xRWyZhlzJQxLQ8kOczMyz9XuvVSdE1igTPMxuKhp3Jec5UJ0aUsMpUSwcT4aro0EyNxwqnUrTknnrC/d3k1XqJLUsLR09KqGGj8otXLlnxPeZaECPGR0SqHLi5MYJI117ryDWJoz3r7myl9Hf0zPjsRk3wWUGT+MeFjzEzDxTUhGdX6h4t+uPqnYDvAc8FdV8cJZAjQTZ5KFq4q+23kFeLrkE3oxc+b2a1TJ/lYEJ1UVQYtGbfnZRkZrKGZXU4aMbTRh9kqUu6VakKlNMdAH9dfzXt0XES3veU/yHX/QH32wFn6AoZQsIv6TFpL18hBkhMwILBM7pmhdxZCNJZ9q1KaV/GWVJX6BatgTcYNWa4g8G4VjBnNhMFkvj1Xh4UTb5yYcAQBv+UVhHuthKnBytQZVsdqciqJ7Gx/c6ZKgXeP8m/FWCW+xjLk0Ree3f89zUw6qgFmDZ+6V2jbProaF8crrQ6WNwmluX2YR2R4i4HMVsacjx40O2R5C18yccss3bjShpnmPer1oFfDlFyraFjMBQvoCOsqM335aPKntReRybFr2GmWmw4gsA0Jw/lIcsCMT2YShi0vBoqDc90ByYbuC8MLJ5Af2Zy1uj+BAXP1RyuEdwjdLodVqE3PgrKDrilcygxkKHeOAn8lTLegwUxEDs2uoWkUeblnKRio0nX5kUqWjQ4mBBSiA+4P+Bv8YWrgI3I52Ek2wxkjCyb4bEo5wUNvsNUOz6+QRjOz/hcrjZZ+zQYho5VkSWIiIA2RvcArPBnmzDWeVX3SOy4JGB2dMCGUDX/3yp4b3RK/36HEPj9dSFYSTof/JAnL1I3wpt8Ex/Ovq7wInoZX4O3Ow7QEAVaio9zOOjF/FAlFl0pzUPdAKiMCLnO8CQWKXy1eJIC+HdsIM8TdERHgr0SD9M4ZZ89S+7yVK/yiCqZ5o7eptWluB5m4imXYlMsHV09CvvIewHZeSWeA8cznP1Rlp3krD+6X3ORBLy7AISBTh6jUyEO/79hT62xSADzJ6NHbaw3rwRZThD3rMZJDxTjVNOd2vB3t0+VAyVwL/WVHOwk9ehYoeX4RzNBQ7IbQR0BUM7uhKi/UsvNWnWWAcRLFc1f1ZE7j0p6dJL+AOfTZp8ulyzFzgfGrZHl3mwVRpmXlE/z1JepxokpV2JrFu+J/d+xSn4yUzbJLltlIUtHX7sEnWbphVskrxtKAwPEiwXtWT5d78FDo2TbC0MY72u4AGHCLBi4S3xbgyAGrE5p8rDZMo2BmiucjBWYbEAQHuEgFZ5pwTNwazDSsDy9s2i4c3HkV9wTZlF7i6Hc3kmiWq+cLGVRVBAzEDTsmgzm4vvD+V0Njv6JgZiSczQfkhQxnaa2V/QwTka8qXif4TcIb2d3XQATum4l3Q1Mnq/A35Qh+z8nlKbygyLnQR1L/SvPUClPWzdQiEdAj9wByfRBgH9cnRGgT0PYx74wZ/VhYbmbReRErpVZgqTtaPvONICma9/LJrenHvFzEvy4gIcdBUI+wTTGOQOfTrQrWCFe+aNneOwEN/rSta8VG3lDmj93TPBLXXVob/bFbhOUFHULI1P0msSa1y3xytOutYxsjFdNFWZWq7TtS/+dGvWTqzcp77N4uB4pD7o7DnaTe/1yzHnv0v4DNUcJkxmLs8VLDahJ7qwZ+FUJI6Bv2aHVUeq7fO8quQEgrm8cgwz6enGyjxEHSBZXtquat98cjcg09DxN+0aKCEb1LrZJZpwEW6NQj8wpOYqgIjnFewRnPgFYU5X0lYwCWTGvv0Adg5F9dl38GJ0fKBBskbGSt4KCZYawqvilFP53YLHGh5oJhoTP1rYDweZKqfpSM9NDgfvY00b2VpW+Kz+K+JT1P2V/l7ME6MEd21axx3NMEZXIVmWcTqQ6NDeoEFZID7g/4D/grxYoDYFJEm5vI5HANYsjPqzokUpGQtMd9BdytTX56p7nM3R6x8YBoNuxEVvil1GKNxIljV4F/7EJ8GJ9Lc3d/ki0MN/IOFq3+ZuffXYelm0YJ1AY9sHLerrm0XeRGNEHTnu693vg7EbQdtvV9ebbL7UT2pK31lB4uRUgC21DK/BCuVrvmHA88RSiYMVs+bc2xW/jN/i6x3dwZEek9sMcMtytOQR3XvYK7dnMbrj9nOV679PvHWlp81rKdlnjU36xiYr8dvI4Fe8gWD8BR/l46kqJTmcJAcqc611QUwTkBqIaYdzCwz18RNK4uArLFHb+OmX53Dzi4F6Vv09YrRmeVk0V9hDavCkJYEik/5NZ/sCq5Q9kvok0rVsgZ/G2TGpS/m1/aTBCxTT0YOpEQhuRT05cHJCYEUULbT9Mk7dCny49kmUPqzstR6tr894WtaDUZExhFk8pnPfI0Vik1XHAoxumadPCtJmofTLoeAeeFIlIAl2MZxp0+yAJBUn1zgE+N82N/ViNo3+mrNjE27NVRUHUc4IAvJHZIIeck+VTtERK8YdUZ9/NK+dTyKdNtIBn7shR6xuGxsETk1wuDTa+ugekqi+KlKUPTLff+KZVBy1pBI7pKqHQdbcTEeeK1xN0rfKHXcuOT67WsRH3QTcPOp63OMTeAG+YUzWojlL2yRWkwLZQEOX6s9GDFTFugtd7Ub23s+Fkh6hYN1nB47d8eZsN0fQfc7mK44/vYKwR1UPfI3fKNXr61hFOZ4O1tQUzMSy9804g9Al0FB6t4NILqk/v+XPQDVLHscH/7sr3O0ByV8cVNa7TnBtZdNVVtn9Je/1LvlcT2+Fy2sVmX1wWtbmpA6+1Qw8XdmKmZ5huf4Cote67kdNZ5/FC10hCMXcbenwAae8D0lyJGAwUYOPGFlWkRfoDIJ66F7lIU1zJ21QMQnJSmgLOMtfCLmBmmGT83i62e8QR7w2Pe8F1OiqTDw+ocgL/gMFejhfOJ5tfB2v7K6HTVw5B75JT6FONlfA33zXFIqYPaSzBeWm/p59dywOKyrU8eO4P93jHFRJF5jCO5G7XZTbuR7kk4lhfY+ysVOeai2njOOgwegJtzVzdTZYUGXzmUAQWShPtQwSY0d6qHadC+RIMotOv0F+VWCXETLuedVDQ7GS31NNoai4vSDo0PGgQWggPsDU5F7rP67LUKDbgh22iACFRyGhrCRtr9aJyFrSIwnedd28UUPlXTHvmMWQFFEGwvpOSuqn2VagQZwccLnYuDMIMrLUytREQbXdS4TRv+sj072xq5m+KO8gNRSFHGYila6rDjTrEkYI4e/nHTDGd0DvoKLBcygHjlX6M8q0CLcrtQzLP+EtTlo9pWPpN/kft9tOpo65qsHMnrKD2jWPvLS9HhJgA7znXN451d2GeawStB6YXeNIGeYOZc+YVAsRRmYnvOblpSlS6zouvsAI0OV4b+sOV+CbXorf026WI0OIGT1XGGLhtAwpujMsBy0AXFfAx9istgG+489hYzZeGeNuoRb8PhoeFUShOb6ArDjtfbJ0b6GDEubpgKkVMvPyiR7Ju9dGVi+XS/8JpYsE3XfaLZjFdjqKM9LcsnppBA4qwVawO0dxpGuKdGveWWlC+OV0MO9//cLbDIgbXuZhnnkv8yDI7VRGZQxxmpTO312kd94MQgZdem3YOCuFpXLozI6yX5ph2qDZySDyVeWE+J2Qiwu3+U8dHJiqNpv3+U9vVmfLgT7tPoHtkZCkzpespP6umFe0UaWXKRtT7hZhmvRgXqstUhIeVLYIojeAIMwP9cHMpKaJaOttiJL6eKwDQrIU+bU+XZYoJF5YtNCY9dzuvRySaFr89v16/PnkxgAHaF7ljvFSOXVwA64iSH/AopzhfoCGG4/yzKg6c6UNG5Hxt+ah4uc21Egb+nD6yf5bbhS+UqYRjrQtIDhf+glwWXBsJGId95Th016+NYGWbzulrNowj0K2xD2zJVSxHQV8TmRg+0JAbvxdjK4gf/evpQMAETI1QhOEbT36UQHl53k5VC3Ndph2gxyrRkuCi+6E3L0/UtA7yhS0PiXEqdacQ99G0C5QPq/NWh2U4ja1flhkK8sixftOt7ETrlKJKGTlod/DgsFBC6RIMJRQl+KUAEV5DIVNto7bQegeDeZrSd+oWy84rcrmvx+rb1Vny7kKRVryCIb7IDj+8TYzloigDzTDHYKNUYH93eO9a9oM+EApoNAMhFwJVABGG6MqWuWGImH+x+CvIkLmBlT/F7GoHt4nvno4g+Ul+py5ipu7CytpDKIRmnbSCtTt4vuA5XquulqW9rfqGtFwAqahQS3EHsd9A/7QAlZeeTpGSct5FOtFV+E91dNTpBoiIc5bEA9r7tloTBMeI5xCUmAVoTe2ztPTJ6hZ95Ld9u7f0OcYCmGbfN16V50ykg3iuuCsWsAFB9EL99iMD4ekvLNNb+/nIb4o0PGgQXcgPsDT7aoSTE9/ASJw8fZETn3UWbanVPOCk+uqZSH72ceOpkmlnnl0Ws0fDnzVldOYGFcIFLyvmuXettrIHq4WoM15RXRavj3GGEqxO5mM6zRefFin2ZCnyXngvQHMbn8n68VdINdXFL/EuDvQGHnz37hEtz8OXujKyrTeWeOv9tSPGoqayzg657FCA37uJ06MLK7Sky+qhk4QOtMgHpNOE0lhf27p0vYDTDx2uzRqRzDB3fo8jvpdNwqRnjLmpvDt5mdpqFq1qmeYAkts8rAVEW4pFtzSYQRDeS4wyix79n24S+B7CEqZKrs9AfhbsGCELd2wKFICnyYBJ0pJx/GJxkVgn/FBEfE70MZcV++NLJ9p1oFVvf3f60qt3zARO1KlmnXYOz9eJppJwIcblsyO5qftTXh+auYJLSLLuLXTO7ioGPxYzNk7jVSoUENNx/LrlnxmY/LUGFejdQStwo/hgr2MxvsE9S9372688xo9iFbupS7pcW3G+JqwQqRcBzTSi5GKLORtVyMqqjvT9o+JBOxk09rZ7i/qeR5qUw9vlViJiMnAI7obTNFHv8uQS3P9sGRisuLX4uEbSauJ+GL6b4WTPBmGl+NZXjut8aLfZfuIgRvWzDVo+hDp2WH9G2oA16B1a1IbwjHSmXzje9CZ9Vx0tD6CG0URkTWcrzLNG0IyekGzjTKmEMSKc5L80b0wfxZD6HSE0QSMzFwC3SVvtUyz4GOBgxviSuXr7ATzdPbsj8G88l5b0Sh2npa8/3sjpnWcc5MEET91TC3GzjOWlHcq4JVN0IS2otEKClD1DQ+tm9hGkTfv8UvxCA1hciiuaTKpU2dJKsKweClLtPV2G8ikPI77v+e4bsBEddYZBup4Sei3AZic4tgL6KU1qNLYkmLKofxPAcxNENiHUmOUgQ8Ge9db7VNeY3goFqfDLxNTARcFIlwuo8OvKBENhvQaUfoChmmHYAglYOcsbStMoOK9uZPz2gW4LSVGAIR8ya6U7vKcwzgeI7qde62cjJVpNstZf1oONVBr2mRJuyTBdaeogLZQp4krow917BVsNSuIl+SWcnbyPerooPWzDUtd/ZrFZAfv030fvl6JcBSbkCfnUAKhHbWcpNby69IlurVCpmyhuNRy1Mi+8ePtWmN1RSfrwQc1aOUT65bfCOrCh5Hf1JgoIZNpGqqE/I6LZJxeWkHpe8cplWzzwp5fZZHb+8WpSTnYO3H+jK6JERuzAH9PnoGlbr9IDEH+hldhjo21BdrOJDxY+l+3c7EHE5omvKLo0PGgQYYgPsD8jk6Er6ij/9r2cxQfCqrjwSweA/YGXb1jIdOIVAbjsUXguxtKjPaWdCwZo20kU19FCAYpyZQ11AeGHkXCATDgezBJMbBEKqWis/dAWG6QPQtLRmigrt9mJ0x0q9DLJMRdMfvnkBpYVjyt2Je77aS9vCcMRKa1SwRrvzdi6eZa3GcaEGHdt78fUN08607z5q7hqrITyeuXcqG1RwvDswsHSIrTX912BAKqs16m2WCr4M4SSbdrHepilu1n1WbVbGXnK83xBrog86z3eoJa6MGIfSHRFvXXC7+j8VCniV8vxhPnaDxnFlWNKamaresvgV8lmxIfZtSxBq2CieV0BMFl7M85h0aGXU7vcYDpckvBPtCECopMQWhHphS2DOz2p8yY8doNpf4akItRhkpPfN8uBkP8h9oCf82FvssVbI5Qn3xT3WnZrAMHoEMlXo57k7JWliVLfMbzantlqrLT/MOmMyvDXfgEJmM3ub73VtRjIqn3E8ZZ3OYrDdMRyuQ5ejFkqtVWqPZPjelT665Ix4lkFJKv2ACPADb1BWjRAqOr5Eo/HPbs+qREEobfz+68b8oTaxhsF/3HKfAiIA6K25HkQA0kZVInbc5IxN8tV01HU3MPVA5nTYVlMpeG195JEmmTiSUoll5SbTwC319NJ+0Xl1k9TGfMm7fNbOCt29GtTHpYRMPxZMD4om89sk6RFnWlmzgWmlm4rdtqr0eHTJiKoi+8ixYZMN6sIpJ4xF2uRd8wYp6yKXO1lguPTrS49v9k0mENuxvmbAPxf0aUogxCZ7CknClBR9d/NwtXaGe+v1jehMP2FT/RmsAdqkcWZYF6mOWNTcLWmQJZTBoBwmyhfGhe8zaNrgHp1c5ywVoJz+T7Dn0Kvz9FTunIG6ppp+olA5owfxDP61JOFRQcShR+SuPvQGMsYrl0+Ec0oY5vcYAs0jdeo8qHzxpe4493U/n3QPlcPR7TYbjvN3lQYsxAgHoCC2DpeYoqlETOVbU3IA8SOMuZeJxJ0fk44WCzMSSu174p0ewswKB2w3ycOuZWN/0hejtpP2RMN23/GvlvjQ1D6MmbvAp1GAoRHfeZ9hm4ojnvjaKM1KIf1VatX0QWmvrI308eC1rebRE+UzZDNP9gBcJborJFWLQmoCkrat4XvZNhPdNSNfKHoa7wMKhra2nG/LC//QseOUpfMbinvaNAsNe4qXgXM0QRe3+9Ga5hUuE+RMJ/WG1T4c5E1Xj0UYkwNQwMFGjCbq/ky7cB96s05JBc+IfN6JshpZHIDKLo0QTgQZUgPuD/BH9F/I8b75+f22slpH8vsFArDNRBvPdCDjvERg6htrMpBA9uGKfcdn1aRD9AvfnhT3CDhZTzTbAb1HP4khunbLbjyy7P0Z9LYloNsA0/E1op8Pm7KhF4cy4/aw6kDBsqDbeit+7XKY9WD6YnMuKrzzF6z2s+K752YEnVPUCXTpFt8D81q3C2D/O575cQo+jvP8v4Y2VtiIQQRLIE6r2aeMUKGQWw2Fxx1eOJd+ahJep0kmZhFwwvg2DwYeBYlV3T4Vbs4SQu487YRZMq0I+UH7VYa37NyFh8gG+0F66d6N5wcy7mmUj9ju7PKiBmTpbo80b4rKyLR+zUMM6z/NE2P10py4riHpZ3jyTevP2zhp2KixMGhLJcv7eh4bHl0stmLqBJbKFP0Wye3zESmXmbupaoFs5W3DE77LZMG0UV+uF6dKJ9ENdfme1itHJS0NBaUNJ7gg3YQFnGD9xmCnvtV/YnAkJghQjSjV220noOkGid2FVrBy5+6kYvsSCdNinePLxh+zRsM94J0JF61xJWsSuWQlChq6OsNyNugUtz3+PO9Io9dx0gl828Cp9JpYrW92KZep4TlrXmKfh73e4m0trCLm4GoEMWAk1ANPs7GglXQ970eyRDSp4tVhnBacN+3Hp430qq3pqPHWqaU1/HQf+siYqRyZChrVZhden2nv/8yaM4n6G64FRRt8iZLORqyrA9wheAn1EK53bIbLRgqe8On6+3wnKY31UBypc0+VISkBaFgb8ZHQhbOGNufkFuDjJ5cQMzCox6QlyIhztTFFBvtGFN3OYrnRKvQ9eFfA1tjg4CKMzAIpEL0Bs0gI0CCHR4ugDnLcQGy0It1Nd1DoDHKE30miAivY5sJF9Gs6IeSkW/ZOXIwAgmoKNcuq+HYVb6TEwlLOhC7O2VuKfGKxRiFjSgEg25KiZevTVfxI1EZMdFUj9gK7EVDG2wm0UsNkKlbUUV7Y42w4kVUGJbuz/RFnz7sIeUnG3YP1hE+yvGnt+1szvYpowhfRHWOBvBhdvlv12FoZ3MUSN9pjJaYn3ErKJ+6nLSyonRA+CTve4sGQjqaWruXbi60Nt8o88cekKutpESXXGovvYUni0X6FFXUHkfWTFBiNsfHjUf6w28vu+fpQzksv8pCDLtmFMo9U9PgRz0sW57NcuyMT/p78OStjRDMhSIxZq1VW3sFIBhTmc1BoXwvMyxqTwd0WAsVh9BHqvLbgBXMAeePW8oU59Jlh8Q/15lOUi6DGu+oYj9owWGM9y+ZN0eGK4XDzhPU61v/zEoOVn5fsNX7Q0eCVXP0gSR8VsoYb6XwtWJD3YG1PyWlFGuoMjXYhyDtyDD3q+wwcUDmaM/P9mE0IH4XXtcVILaixX126H7ZujQ4GBBpCA+4P8Cf0IUKvJffUhEpMn3Mb0HP3TD1t/xupfFEUxp6chiI5HZKE2i8xFxBgDbz+1hAJdAcdwFYagzMEg4J7U4g10++Xy2fuTOExJ+K3desLBfByJC05yjaQO0LPLH+jxjP1yMgoGuyYfRgxpiNyS/UXGZ8mRzYZr2PoYnnCp0S7x0IdeiDDaN2av+qlOfge52ZLbXd2RsCYKQPZ0IZtLi9F6C3ArkyC3VwJXCngLUyQIkiZhs38Kn7ZyFMBYyZZ9dQu3aaVSrmf1H4dMZ5Ax9CVAS6EIBFuSwQwyB6UZpIvCcC5G5JbHFhM30DMC7dsf5wAD7bvcQzbLaOHFR8MbI27CZ8yoqA8VwF6QjmBn7Bv1K8jcqkqhYDoM0Tjr2mpjlDALfWphUG5OsxQTw3/p7ufJfmYMRBjMCBEjaeqYRN7QpaKQq9Q9E7KPsUKYNDTPbiZ0gZ6ASSAMxMAaJyOsgDazfzjZwGoUPBbrdDgtMaC2qk0H/TdYpbsUCw4WctAp9pGeMaBrJVaEZ7q4DyRjobLaZKTwEBWefdN+5WmXSbYENXPfF9D59Ki6khMLnj1YrtUMzJmUcaQqbxdtp0R/jKySM9cl4r/V7rRRIaO3zuhTI1sFI09gUHM8Ck5hDLynF1vFM7n+sBCsKlkJFBaInBIrHwkrZbEZO4fYxX9jLCX1YLGv8Zq0Zl525cIDQfAK+uSYkDCVpiL98zPIiAQ72iD/wIiSnh9HZm/DFoZtDjXof3PhZBvunNm4BldbVeYQC/nhW2EsyDFPsFcMCveFbNUGbj1I5egU/Md7Q/Zl7DPPQZCGz0J4HqfBD3Y4fUJqTTljEy5NYUrBhOBWzX/ud90znFn0uQiVaomEqMa1wuWnrLGraUnuCaqI6ReeE0hDYNaEJGDup4XHJRvTHFxAtaWk2b3gKLZzHo1T1icT/1mo5JA6Myp+5hk+0SVJFEehU3NyviNxrhaVpFm6C0kEn21WSENDko+XEOJ8Q2rZEo4oSdP7Ap/a1/fTxxtALV6RepnN4NMRp8HMxLv6DdNnOm9vvgCHKsdf6LSdVk3Jwn0W0ESW2fpmGoj9Gx2/WW0oq4vd3g7SDb0TzPpSA9W2S5H/WsfTaQiAonzzOewu8Z8YJmws+CbvmA0Ttw8YFlq6AIuJ0JSNfaRq2OsKuwdDgbJyQN3k4vsfzGtzKBKjQ8aBBsyA+wNQCpe6C5RvkKJnGYaJXn21T9VWhgJb4eATSSjLN4KOezQduWRgP8z+6o60Ig39XCDZOTZjfQdnBGs+mrZNv1404Roynf1qRJyfUCsuLzIZDbCtnvaAbIehB9XS96iQEiGqcnNVhER7cs/ZyOQ0Cc1JobXpM4gVoe1sXBShS5h7A3AF/yCrF80fitYtTJyiw4aMztqmIMIdyUD5Q6uKm26PIf6DEtfvzCngYImEeSQOi4TgyDt75W8nKzyu0Jegd2XzIBG3cWtLOdYODHOYsXC0eOD4WaUqxvVQdOGVHjZ6c7lqx3TFr82FmUQL3QYJP0S/qu0tkwcEmH7zRvKH2RUc2+v5t0ZYFOoRLHgR35NI0wgdmo5rqM3eqAuVnLKW4IuJtmX+7mQISrokm1AGQqWS5VBuU6kjaQ065abTycKyu1r3sTE/8DoxxaYtM8/JEIgx6T0zVH1r4ZntLxsvffOPybsFvBGdgTlOmTN0eOGt6vyLmobItyrVPpN0WFkkXYmY+4wdIgz/OEnAjHwbh+dIMIGhrOws2WT7ZjnC0wUwxcN0dYlRZ9JxTldx+6HEddSVdU+jcfu1s5Rkhf9ToWmO/yi3QF6yop5/XPk8BSTVHjTWNUCJFpVA3JxjX6YFeVgLLtBTpMeBsE2BiwAWn5E0ZMdQnnOKAESWpTKt1GGsxrWiRpZOrrb0gryGClsB74GsPPqqHDcmAJuq+/vxFuLeQUDOwfQJG8UoTdHysBQauk9z/3Q9NYExCWwqAVE5TkUb5+Hidt/GyZIxg+QDhHltRDP8lk2AKbqmxsw2ctrVAezGNLu3JEFTNv+FCpvMxDnEQv68Sne2IZa+iSrez+buT7w+lTavaQlctMwyjsoAzbAM4N8z+AabuMMsrM8atsx6hBpXAP0bAX/Uk0N88d7envzU2Y93tp+sR1B42lZySiuKWGh6pPkOMi2POVgn89EE4w7EoOhKfANaW0Pd08M2wvzHllqMolNAXf3DCBOs2oRiip/5D3UMjWQpMmwumYlUYc/eaPaSXXj41A2CV9OlYF3paKeNEkshUWgBQWTx1SY7cMm2EXInEItLWbG5GWkcBwBmBqLVxaUSdAV7XI1rt1lK1p3H2x5Xa/eEC/XFJYUbK2Vmz0bz7jQkD2s4QfVF8nbAzUfEF/HPqvBHdnhZMgSydZEjhwwt28l9qDbTrnPN+ItXuB8CUxI1Wdp+NzLm5TFGbt9CGmyu8MMC9QyWnSDYdrw9/qzYnLsDWTI8pQBjldFmEsRQ7S1N0DQPZOujQ8aBBwiA+wNQxj/Zc8WHFrEP66AnCLrEbpwcH13xFRyZZEszutooAvqxiQrzz3DqeDXEvldPpbnHHOyTHOsjJbkC46Q9ik3Gk5BmrA8+ZgWXXdQhswtDkBekrMcpqyFjGbkHibxZahJBCXhf9tp0kbZs5ufGcJBIMI539NpgHhxMo6ifXyQhOnASFwaHJTsZQhw2cu8j62jxZyTSyDb0ePOpcDIUZSFDrK4D0/WYTxAIBU9G+MKAzAKnITDMvwhHX048LT6zVLgFHjYIwBNdyhg9DsYMv9LkkPlWo81y6zGk5zWrfi6EOlR0pwlMJ9qnGcX25Xs6dDxO79Nl73NYbp1upQKfbfbomukrF/BDRO3HteylG4wGwoWpV7mYCjbL6rSirGqHAUAqz4Ax41GC/VzWZOuT8bLei/Pyf6onilMxjuOb/3m7r1rrMP5jW1L/eYXLI9khzwUueLx74RzZALlf1xlMiRyCl4RFbRPHdRn3uS4Ja80+Qufl0AsVa1dScXE84XsoVCUHRTVou1kgU00fKdeLqEsxj07+dw46Fe7T26KugWdYw8FPSevZHXVsBAXDWr9FGNkxrP2BbUb1wdEZpqQ/5uX89yR9EMCz73hJ1f2+nXrc/dQEK4Cfyxqv+WW1Gs86ThHcE5epO1sGqw4B967iMXZDwtFbElu9yh+WX4pN/h8inSXDe7bq62Kp2tvAOstA2fCdh/HGB2xGZOZZRXNj+645FB230z/JhvKGsfDiZitLRukt1WgUDjkIkU4t6vjqxBfB+PKiShPXQULsUNHaOiRrJQjmo/dw2/Hqa1R9lpaLHQGcYb3G27McolhKM6miGOUQ5jnsJJ4mTDcdfSlv8RhEUwuFVlUcC1X47DR0AB0DqYDuqZn1X7nkX2MVhkRmKHwH3Eryg15iU8qIw0KNyuWVtXZuIUjCFQbU9ueoSQPiP2oV4nG0ao/eqb6ol/sUyyDeN7YLUvnTSMnaFniJ0vhylfDDEMGut2npaDAN1tYy6rkx7YGXcZA5aqqURM92P8TJxnJkGTQyIlhG8ITNpLDWorL7KPIH6z6Sk1mWcOZLDmsVHY+eGHs5VNQkVsXyH/DwVFi2BKUHZvuU7sVQ5LZ9n/2Id2x5kyrm1GPjqhI6oaRIc7X1bskf+Kgd6k4bRG9tGVqze/2xXdo7L+dhtvEcDegByPuS101Lj2NfO6XEOw0rENLNuvtxX8vAgiSoo6R5yqe8VbbW0+6FxlnUOZ5223X+NdHLhpogH0OZgtjiviberXUQC3XLECLGgv5VQIOjQ9yBB0SA+4P8J/8Iczo22TkQWmgkDzgnuKlrUD55hywtvEOPubKzfhC9RNYJur3E+qXSJH/9OJHpF7Bdt1XOPNHCcxFMpat7lN3oxzr8S5sqiJ+8YnNaw4zyO+pYalKCumDCKZX3H58mO8rjSuzw9naSZwPLpVstkk2rXpKAc4A2u6wcwlNj49jOWgm0bIVIJmniuC89VytO44GJgLrDUkE2ZeTIDd5+z6BK4tdqI+5okMkFItltuNFSsFcUEstvC01Eviu4CbFROPuc+01GAAlV/ohaCjyLvEjML75ng6O+evI2t3XBNLMNl4u1Fzqphzr8x5MBh5UE3Yngj8tbxBRMp2/owaJaYTecfEBt+1WiyeIPIN6b8wySKpgTUD2qGviziF5TtFuHnMAJb4n6J3K1yIqtaHtiFUXI+8AQMpo3Dga3qnr7MD6mWyziNkHCKSC6Sn/K48I3avN1ecyAnVUIIr6XILqoBvtVtw/F/EKJKvR/FjtvbZEVeHIQUM609gz1C10xhw85ax/F1le3AV0I2MYANuaG/QVT1d3BpWeZVBl0WyxLE7ENbCsCAJnu+GRhd7JkAXHI7JXTLitBM+tMN1Exa8Ab/JySRy1ZcenKR6p1Li3DnB5ZPw4ukjwF/8vPVux0cmxUjChU1XZOYv1lERvDwuLctt3/Z/0z/dllUwpgy2r/vratJr/06jOBy0r0GremKDmLkVYOI2ARfsbtW1K6PtUgCuCVvs3mMKh4ibO7tss0zWC2vVoavt0Bar1ywkLOFdpPMWW002v21HHS1afvOKASM+qRKIxSqkcPJYLyvHz3fxzR29yKBMprawGgGo2+eAmh08jnvKPiWLuIQLCtkOKLHbf4euNdC2i1VC04On3kisD3aErmBUHeOBSapkzPGAhMjU1S1pJsCoqDegLcBRlAKmPsIWR5dbvo36FQBTSKlwTNwIDrKapPlsnfCMpudyKXb3tNq7Pr/Dte+NgHhNa0uaWHNdD04f7lj9p5oCTWJGEmXPvnURF5F01F4+T2Por9OvG52ONiyzxoDSRRhicbsyohkEt6ipNaAlrtOLPEaXUP8U8w4h7WGfQfHLn+htGmrily7l3WUTkJgPC62YkOHPD4v84VtneqPXNl5CPxIthRi/2703TClW0hehO6laLH1WrQesHwm4h5aK24TyUOTH2J0V21UFYamze6rlG0KQjJEtmG620ZXgajukT5V8G6BaBUU9VEDEjCc0yCDQEg0hNCKdowJoYiD6uJ40BnnRYPgHXsb5KyJpzd5Dzxr7pe1p70nX811z7IxUyHzt6egfqwzPn0o0Q+gQeAgPuD/gz8EVrtt/IbykChIeyzseIMWKKWU/VDZKTyMEN1XPpBqhmFhW1H+ngh9yIBvF5POFgwUlt+wZZ8R8tSx9OH+xAFxDP2Y51PYPqc78dYBoY1/MmFMg80c4kHknlXgkI5BtAss6wXL/do2F+GwY3D/q0Ws6EP5faJSQOfI7zW0sBg5CvokuEX4/vfqKEHt7G+K5lybduj1Z/i7wfuE7CvF7gvxG2SCv8iLwom3jq51+89AzkL/WqvZx9Z+XCyhuFN8BALYSrTXrxQsRaFc6mgKZsB6pYmpNctiQ3JCssyyFN45rXyND6ng4EFRStSZpAW9zoyscsVizbR45XK+WcuE7yd242VSM4u2QqdxcB2MHEUchm+oWnd904CWVQ09KDV8CreYrDxcJToRSgZA1oMAD5VWunicwTAOWDhkv3ymUjkxjt85LXTCECq2Y41joh9cTfKb22p3byoAZ2eJKmVGlrroOB8DremsFqA1zj25MliNmRfyPKFfVrGU0yzEJ2gp2A4fWYc5WebZxTbynwWj51f0awvTGeIB2pM9F01iYgTdrTlQaFIZNL3WxglFaoVgsHBi6vTBtYcBFlBBSxWRXZbK7o/VNXDaayIZ7jcC+pPNHT/nZR+QZyYQZUUEc7ECbRJap+FG7xcRmcYilET5vpfT5KEj3B9+ISQaTCNTyW3mBRMOe08BngFSVLc/yQ8vqpBEgn2/TUS6TPwLu/pkbXqVlmTj5JCRsaQm31BkVip1WZyOMQlzdcp10ae6v0ZapE4aQPoaG5S0Cm6pjt5tp7ktsDbZxc651Q9eGaa77V7u1vTzoujVY5oGxTUEMtoar1+fZveNmbr00NE01zSFHjJ2f0Z2fYzaiuVW0EagGjYMTyRp3lECgJcN1hKcICg1+5NrE/g+YM4Serpp17NEv/zKHPj6WvN8jwXhM0zzQ02X81QF4v6SnEeU+/HrCBjbyZH0LXW6281kH1ILz5qRNkPrEBoI6WuKCKPM0yREAEOH84OBUi6FGfRTTBXbp/4fSvWYc/IPDkh2hQZSlL0bxbombUQyH7uIsj4FHtbP6HstyL5xR3+I43+w4bEtImEzm4KokasQxO0/g5kMriLN7Ux6IAlgWNNdwApc79ERf3cAz85AhpyaNIi36gymmZ6XdXtyuAUzy2weO9XPJ5bUcOduM1u/hYCm8AGZh5g3szrqwlGl8gRRcnv1A6elxfTBsAYcVw2OI5AtvZSmPjRMCxNLdSETeOb5kW7I7OAJVaN8/dS5UgChVWqyp9iKHOJ3+W/HXkt43Y1GTW8889i2eyHQHTMxp/vU5VKjKUp9kmmVOB8DKNFRFV8wnIK8CBdm7DX/VI/wczRjTYbAgtn2f1VkL9j+rTG8s4PcIysqwNauGGJq6/koJ96aQimmodWmeEaihbY6pxkzxmMLp9kKZ/FT/HS59n+o0SEgQe8gPuD/iT+IHsepaOY8aBF9D62GmoHSKewx2VyhLqqS0p7Hd1VEfcTR4gBc8v4LKz0JWbjXvB7PgBHpOBMpsEOc1V5zL4aHDyi8wiVaIR3QbG6plXEXR2HpktV0ORSNdNKVD123xilIQEI9he9NGMHhUjnzfHFJPeYokqdnezqyiv0i2tSKaYrs3TLzFuoKd3Ce+Gb0J2fTNu+SkhZ2tZeAezlOHLriROuwtsB+NGZc1jBrgrHPpvH0X/hKHdbDfxmciOIHA26PzItC/ni8jSpmjs+grgA8Qnn1x7D5w9iN7hTiO+ssF+gg0KTJuJH/rxkdB4FQVf/db2IVAPottnD23RvHd+u0JYKNyrx7Vhhi1dwdydOstvBcoX5RxyazLh3Z4FB7O8Wug2zS/W4JkJ/uke3nVufC5wUR2kiMM7+IGaj+BIbgnD2t52pO2Zko6PRKnbhd1okD0g4EQtC4RV1QlE16CfbBRORDQpBb3cUdR+axdpvR7VKBCjGhUE1DsWViilvtlf/jK3x5ZONQepORwXwkKGnd7j1d7VPYvQs0ZUkoxB1uUh2j8/tvnFDRrU1dP9x5mRQYT8GnmHg7oLMTuvQfpHmO0FU5khchFL5p/te9U46bTEttYCW6wKcerNA89L+Plj9ydUFF6Su1J1KiS6p3wMj4z/fmxjpaZ9XdGEzpHSWrFfaJKi6Rm72xDu3YugiqIrfYrl3CLLIq/Yj3xWxMg2U8iu+TdclvgKNHEb8ebvw7iawB0vgeELOJkTgHW7EK1h10k2PGS7lXUwjOABRIoKCj0dmTHRFlDs+X4vZBcKWabf9guQunS+vozQsH0cElVkgArS8Z7xoicoiPjp9tzJRT6KVQIc0bmcj9lQj5wouGIxDZHmnbJ53fi5i5Fvy+tnqGHXGZFvjHFOOuVysLSu8u7kzaof1w9vg+RXufe1NN3O+mt2E0HT/I6yvFN+65JGw9wRieSovEh+sS8E0IG3jfpFoHH8SVyoWp006vEuDTFdDN6UhzqbDg7JJ4tH5gZiqSN4ED5ClIGIvmi47n98z6HRvC3LLQw+Ngav7RPMNsR4O9Iro1jp8D/69R3ePvEHv1S0R4DKvdiFaHoGbWg852SJzV7UEf4JmyydxrDNQYeJs6zzuoBYZQlWO+n6nP0Evlq67PV3bZK/tCkb2wSaTuGl2Zo3KWnooJPIBMbhXO/lq1ZUM6ifCtaOA/3vaP9mw2SAQ506bc2Piec/cbIBoCY8kvmu+ba4JpFyf7S6v1Ti5UlXtXzyh1y2Wx1ZwF86jek+iw8ZAsoRqRBFFOiEdHvyeg57m0IbqLbQTpevH3QtG81ymvpjvfyKdInFS+FKLGfCuW3jL7+MEJP3Y2iGxn4oGnaJFqQTApCzFxxZ1UKRG8614g6DVqALZwhc9dL2oM+AtX3N3CSxmKwqJKf/NNaU4ivGFRxNWvGR4LQxCXv2crFbxMdpowpMrySYo0qqlbsmzVFR7ohKzhnlM5L246kFcXqlYe3fwroIf8gAbkJbzUMmRO0xoO2+x7qNDxoEH94D7A965jHzobnUaZ8bmQIoBcDbFzUjsvWpqBcscnsMqPIA5mfqIQSSMNHsJmhq2em/76YhZ9Zx+RwOewiNYNwuXcJ8kG9CqK5T2lmmI4GdA9zAeFb+n9fDHjiIZ36QpY1BkMaJW6hueo9uGUBOA63N/Kz4ckXy7ETdz/Ghj3Zs81tXu+38EFTZAU7QbBp+E+PI+sjMcpu+Pe5ii+u7Uh5AyjZk/aRED76DNZZ2KVl8ITuOFL12O9atAJLQJ178hrGBTFpEswF3H9vWr0hHGjz6Lf27tgfniB4L+F0r5+kyq+IJLuv17CS3BKcrLjFE5/s3e1zcls5LbGwZaOhrkJ2jNTUuNhl4laA5RjuwQa/9dGcOpwUcFwbq80K3mWswdU8/9ksTisAeDI/71tjns30yilKdxbVEZpYbvXx5Czqff+9vz3yMjRESQv2Lxd4KVmsHdBVs7wMM/tYDgZPEz/XSU84WBX9a+WY9r2VwEgpYX7iD9dorjl4x9wV+LfQwjAyajnb5aK3fTzuvIohLtI5XcR4z4obo5k0weUFtYj4i70gksxFJbScOwc+4x6kGkRsP1TCQ6RUaI/yxxnSAazzUuXQ9Ir0oPQ05MCzRkKpFnRRpmJoHeWZUA7QKNMz5cGDEwVrCPsXwWMU2Mc3jDfRnA2Ax4yE+sPZHqaTZwX1xN/cJqMfgS3ipkLDhFSp1eSC9eA79Izt5axEkBC9/hs98khILstjo3VAFkAQfioYznrC2Zbo/YCOY3k1Pvf015dS7k9efmKTMbS5dLJG4wFFPzRA92G49iWmzd/A39NIZKxng1ngoZy8V5ejtODxsJXj1W2g2Pw4G9NYmh6LkS5njpNPXe1kRpx+lqtsubtdfrL0VlGbO3uTcNnimcbWZBfyi3Z4zlh8FRBuXiPst6kf8BjE7U/PocKmjhO4p9fA77bCrSgmGVTVqby15s5SH6kk+pWXyDcLUTD1TckO7OIlCoAwalxADlxHNLm1pQat/bU/3dzk0BCqROB7Bnx5WgWVNo0ABOQeiqgzzQh2XqHaIeR2y60T5xn9/+e/qDi/iwkT9i7LVJVs7dKLt6ME2qybXmNG7jmzU+OWqhX5BTVrAqQm+LBK9wpHYKU/Fp9oUYAsrhMnMe6escx83XKMr9mSdUrd3mehPGQNbZIf84A98cJPkVhqKEREgsZZQmltswMkTNl1j5xnDy3IHh9tglyuFP9k6zdk9xPotCLcXeI5AxVhGuEeObrGs/6Boea+vIaxKWzmDyoc9oXFzEjBkp4+hC+qNDxoEIM4D7A99BPFWt3eSF05g6BY6BT0LMvnpjgmsKyiRZPjcjmMFlfDUlhbpKdMrRyxbljjeLEGgtFVJ/craSEmRoNdk3wGa/bs1ejLls+eL6rGmjYOK0twKNQJrH2pKxzOl1WW2+Gr/4jvN0tlCQ566oC+sBHh2agJsSn/VLclPgzQNhCWGQxcZhHWxukYTkBfhGg4ih4HjxMcjoezqjAVax8+Y6PwdhzGw7GLsCd8PzjGlKdMsagZD9RA2jlG21hAeWpsf4iOUUnmBpNVnLXftiIBxoenzqen//ZXwoBs9kzcHbHHprodpakqBIKkce2XO5wJgs7X6KTBKuKLcc86SB+qz6Bnf7Ph2rIliNMLlfl7jhr7JUGMRuosL38dkqGvcSehLogPc6H0lz6ewlYP/zFYpsIcGHzX41WbGx/2eTArdU5KT93tDUKypP7BzjCOfW+WUW1lhyo/1yPwIExg3nT/x04hXHfFsqvclcNiZKfFL31cL5yyzCJ0CX1gedoOR5ZeFxb+gf+TbN8UDSL+Gw3HlsSWmcKp+IJti1RqF6uyj7yhYTsNqZiqUKvRQTG7qONlZZL1DYxLczLfZodOmeT/6u6cxJahaiIfYmaEpFKN8w8R4CjnOnNnxiNceOOBGEBNjAlj4D7DwAqCwzgI1XwuN99CU5PGzjDqqNfL1iunNcDBoXvWyqXq6YssqP2Q7PujGLKXiBtLBwBrx7uc3QGS/QYJgotjalQHBLd/GadYgkni6f9Zy0N2og8rIZh7SW3J2fQzkDywVMsF+rlCFZHnpD8jvVYPsxNeDhrzbRBzWj04o1ur5PzggLqtJyMbvFf3+3PO8lmfNP9dxinNqxCrwUZPvfJi0GvuZPaBHuODcOGQHVzXAT0/TdwYxpRgHjmUiBfTHWGs+j3fD5ARc9J8S9lwYRk7oSMUgg1mO7a2fMQzCS0GTgm2nOtq/BXpjG8+hekmAFoDVthC/OWEJFJz03qG6wQb/Fz/pYitK9UHAhUrEHoFcxIMVK9CnCFxBrPXk4cjYeQZk4q7C6UViFTDkxVWI4GMsLdvQ95oejPMLs49qX4B6NsnSu8Rgx4YGvj7JAz3O9PJFcS+HVv0OZoFt8/SH35C0L6++bb5kKXPghtstxkIz8+BhaZNFCZp+1SevT9UvCaX4448K4rSdWhJTFUz/0krtYv4T056udnY77JwHNfhOJWq4SqFiDqoW5e0d3CImtCOPBnN7FzoQSAXnKWuINUWMEzaoieszebypdKwP1c1kQ+vElLpqTDnKRnTMc+aNDxoEIcID7A99O4JRLp/492Sk2YU5AUkeplplyRxHrRdFC5rmo9DSgPeSd/gtiG3vHTRfIv/Rv3760imxWj/RaK4ufbNPSx/sYxXDM0C4GPcB2RbE1z3Xf7FhRU/NEfRg0f640FRda+WLwhcpgrjRrtYYBPsMzntpa2uH/TDUNBm4NbKOQesYuCl5eRN1lkIaPRao0hqCZzMcvoGmt43LYswgdhdZKMFlROx5esB/iWEhcaffHOurWWn8j2XFCKA1ofIHEDT/7+UQbUUVBxowhzdR7Ql2eiKiJrfxZDK9u8LIEO0+ML1bMS3i2CUrpefaypXff3L8l9dIDC77cE6YWOi9yA2X0vTlQ9siEwf8HkWyVPg8pg0V2EpiJo8PYhnX/Eu828xBAGHZCLSgDyIBLlWr/eXdhLg0vrLI6MCURTv4Xtx/pGBr+9Jaj1d15afbglFKMoK2B6wShKGr8QUnFT6+8rhnqK3ULeo1jMzuqWmVXLcZBXDnEpSee7LIqYlMzJsri4sD1uO2egrDUlh0XaYIUeoJip1I0O3yIdI36BKyJbbhuUP2lf2K+CLCSVlcxr9306v4A/2tsOuy4W9lXtUdqJHe1qJFb8b9fGi+WQwtRSC23dSKXffZIqQKfvQP78+loqybetrvlVUNNNCjlpdeQ+3SxYXWJ4ELDHnoN0cdeYJygxBTw8XrDzPrFsaaTaAFqklLhkALUt8Cl9TZKhFCXw8HLthf0Np+/cC/HPppZuIDSJT28ODjXGarhMgLBp5gSDK5bWKkNJTmq37BbquLFQd3RMSZYpkqfmFGUeAtsa+3i+cZb1dJWkkzYbNOwbZ+U8ZAwNPqDyj+Gb6rjzyycrB33BAL0H4dy9EL0CLeKijD4aym/fEPdhU1hf1gZHzUMn199UwSBoCOhFkQZ+9j5+HCc/ca4720CGgm1WXc4lUN8SWaQQldZ14D42GikC2F6YqHUJp+r/Eldb04nwospMPI7CHrA2klEkX5ORUEhOi7CEgAraneHmUl+MPfeKhDvV6h30zTzUgYSjBF5gktlfMHWJ8nDg38ZFDiC5jqvTuSDMS6Kv43H8STfa+RvMKyBAHztf5D2tG/KOVqvfJYxYctTfiY+c7vQL/9dfHuV7MWPlvQfluZuFKzGbpojJFPU2eaHH4obyDPwEWw1nweQFN+AjtRiwET2eBrOhV3o/10ocEDKmpihwUGgoVbUWuuXhxDRb74aAOb50lVp9e3TqKQ19GSYSHFyETf4wEY6iWwAmVUe4QhwAhq4nKiubCcCG9XmBaNDxoEIrID7A3fEDo0+lVlv3ZYSZkOyG7jDdis+ILDlLwP+17IVbkqTXcd/zTR+saOCSbI2rH0/KDi6mMLQPMdcFEQg8xGUgio7mCCY3eZf9VegdvqErWUxpLpSFEqEJUw99nbcZhBut/Mq5mmhdyZDzXqAubTw0HujMGzbU2XEjMAyBR5ykQPfFLt+27DqUpLsQxCd1D+JojjIjVgP2jmQgGOpyNVwDNRPzdmgkuvm5FLu4OwM7i6muvz58T+kQy3bt3t29IwLQtG5lhScmRMNC04ar3SXDIXqqyRJ0V/DAucbyYFI6LpRXL9w9G/ajng7XM9G6yVyq4I8L6elQY0dAtDg8e2qcbkeJt8zo7QoFptBYvTCVB5CZ6d8FsWWO66kSjnNV+0wnieKKQxtoExTo0c4YotOKAo/nqj5kizPZi1/Asx4xAQLegHcCzeF4v8mA9V7ZAV7hClrN4b6i6zXCIvHI/ZO67Td3W6l9usUkuQXLQ7pNnJ/yWFG4WxvwwJxIyQ3qdIkx5mY1FqlI5/KgHWcC/H5YJnAGczuUuYj4u7aiWzu338s54uLJDJ4+m9ERsEQbxWy2C6QSOjOPpgHGIIcKcXVJogaV35H3zee4ye10R7y5litta9epWIbdbSPja4Aew2MXhU4Q6sfmQdIozv+x9ISNNPO01IHiSH7Ax02Ly3wgtIA1dQ4mZsVpPFedxmM1cwI7kUPLf5ma3p8gCCXvTQ4t1/oyq1K5pITlgxwAxGVUTsGhT1Za2GCa/XMLJCArQ15RdobNJ+i82zzBMwLLAca0Rh8QItGnZk/Lwz0xA8WQfqgz4kGxrOR9NIK0QTUCbbCGEF9QGrC/0iepzoI4uB/9BD0c6HxXqkOKDI34yH590cxaQKEqUgwib/ofQOIlcmJxmGVhziKmOy+1dOnLcaNfPefcOgrga08FmwgFyrQoyzTbTXfadjn+uOrOnrJ/2h7m+60EarR5sZnguv8myy+e4sJC+M0TxEKeo97/6gNjcVZ2rHm0eQj1sJCg4O5Mt+KlGeTNuWPJV5D05SUJntzCN05unaSUK2VtlWOQB0PfZC7pnAnFOVIxMaOrWcjrJVfyuM7IDeGqZMI8VEqUFiYhkzgHd6CbmBgSapgM+xiAgPYU204wwG0Wp0w9QVkt+kbwch1oTEmancFW9XdAwiAUaS/HSrJhVf1PqL9g1LxcbMssD8HltvlIc8gf1+VUfLpkE7JKkQljOMJsmfd2XrNIzHpaAmOMrCri0bcbAq4D1Sd5zK84fTzTIbaYeuRtrMEMaNDv4EI6ID7g/wR/BHz/5Wa/G/6Ms7ZIELJVkx33QD2CBOjbeV0qrHx3PmO3t0q1tF6dWkzqhuzteMq5ILuId7CelAkwjDclJLKU0g6572P+8TKHOa146nW/kXODNnuM57JNPCzhg7i1mY5yxdjbEUUAsVHT+kuho2bJylS/l3VnlowVMKxqMlgQLUq8NXqZ7w2jpHp6zM2iX+1grPCNC4oqx74RWgPOridXNfpVgHnyl7q5ZqqXW/8ajeuS20qh7zDj43wtataIxpsrIY13/4KljBM6wwikydovtjkTe72iazuBygs0O9K32uIXgBVGPhD5zXtGYR7YmqoGn8xNiCdngF8RtV4ZEGV+loGU9a0seXCbfqttOW1GCTEpC6qryEkWdoSBFE3RSFbKwBa5roBlQqJZOoTZw9DdikLyC2AWemFMMxaOsFdkLpYMewdobVUS9stHMkaVyeFr2zGS8qRszUV1t9FHPK4sqbMsCYGMURrX6JJ83G7FZC0Z92iqZaygN3Ygh+1z6L3fzOMrDzqdZW7OpjPP02CTVsFK4So/Egjkb0E4SJ3aHxQfV0MC7L9g300lOM/oUoDJASqYgc1DPALjNrPf24FK4ou04k7CO2xa3wQpOq8T7IjSLaVm2hxXJHXViAVkDtCmERqz//Rq/SyEYPC/UXYl4Q1JpHcQj2x1IILrhj2VVyPO02NIXz78oY1CWNAXBA4yEuLNm4E4pzcQ/tZXwTqMRJfDNt1vZlL07iuihl8cEG3QsqROHvoSmvrdSqXOf/+9DaWgiW9TrExGm0ZdgeZmTYYSBadkGL5vSdzy+u8XXX/sFWLDzWifWo4e7iQDhJM8e9K8LPTKsV6DroNMb+/4pgx62mUFHY4es6oSOD2Wl4tYByhaQZ4+wP38UA2zR4w2m8EbMwSb3r5b9si+EmyaCnPQOQbqltzQsppbIZrBrggMsTq3b+TEV0/ZdDIQAlaz2uPBgAmX60L89QMkEBXNnGaGV5clyAu6rDM7Zrj4RHKQnDVQS9ctFEh82faiFMYQ5tXI1YSdU4kVAvrGiWea00ce+eu1LO03fjvBD2rtfgJLSsQDtQEle0IZTLESyUwYXBCaUq1sDYawpc6VVARHj/J1CjvXjIP7WGMBZu/zuQ7bZQcy3n/C6DjZrQIsVDQJfLH4riVShv/mX2SOUsxQXg+TqvnfC6YxiGSCnEA3Rp2nSX7fDqTZ022n63lhPLAcu6xzQczYY35R8OGP8oQOduz+D1lYKFzS0Nn5GSK/8wYG4izDngxo0OugQkkgPuD/xD9E+rnL1ApvpTQOPTQgLFj+cQEGG8r9A4SNwFw13JDF94j6auqTIBwXLI5viLIo9Pvfd94us6obi+ylDdTg65055SyZGlMwHLUc9EDu8V2GFGjUDB30s2XqSL0Ga/g2A4x5jx30IWmsS9NPblmqM4fXfx94XliQzRieem0UM/u7CmvvRAurPoLeqNKGbQn/m9QnFS6LUSn/eIiTf9+lShdUrUjQx3qA4JBt0Q+q4IpSvslRxRJBsajs2zm4grxfInSGd/FbHJ2QNkcYw+sZtF4FRnln79ZGpCA25Uso8BCX20GdclzMUOWz046Q07ixedv+FgB2Xjt2vtwZ4AJX8yaFtFtRoKcuSVEwFdutGr6UEgPoXpg2VSGj7gpGDqvTJydOd4Hjl9jJtvQExevNhBuGOaS70/lPRcMvFWEhpbnGDbrMt6GA9VSqcDR1coJe/Z8UkV820nm9Sb0R9HIlvPHlvUaaiDak+JAE3thxr2XJrTOFe1SDlRtQX8tITP61aFXZZGBb5HqDHxe+vlTQ1oN4pS9gtucwdhu7XU7s0NO4xDryYt/hZM10LMYp5xskHq4p4EFXG3Um+8YHnP51isd59Fq9UPTdz66xIT1rYSnEL+Mo865dHJ1YB9086+TMnsOgLZ2WCXb+sGbjpuGbeiU8m4wrWQ0esMkxaCAjeOoj55w6bwy/eir4L4KWpWPHwUvvBV+Ay/OAYNTLCvWWAIO6sEo0ysU3jFAvB3P6MDiPWUtxXZuTlCZw62D19b/g+iKYIqWJ9YbjouR7sJT0208RZ4HbjceXFjGVCwp0HZNA6ur1W7GeUa6J7Vef8Y6eJDEK7bFBjM9U/8VwF5iqR4lDLxK+0GzMu0YM+rbEWkv7U+2QZYTdOLa/DfTjI1ufbGgYpm3pXt6OqbRLJNj8djANxYrjMltVMBjN76rtSoEw8z4Comq6wo5tf90obQCXuqDRIiHRtrsxWYgyObet9opPttCz6hS8wMbuk0vgc/QNoLqgH/1+zo8F0A42Cj/26PeXCjlkAdPO0x8v981fIf6aF6jMCLvnDochk/dLnx9L2ocE08ztZgMGo6HeIKphOrWRUj6MGpyzRzFIqh9ilYb0unw3pKiAdEddomVr5Yyv5Jzso6g3hS3aaf5fNvILWmBcviGWSY+nblkdC4tUnlDst8HXqZFUzUrlgWDaIdT/xSq9kHLlc/rzZRFf6EaVVrCSAy0Y4XP1/GPzxkzdve/ExcmA0g2o0MhgQlggPuD/wT8AutPQ92vKcfDJor9yDZHtnYewQZrVaQLkAYcCsj7eyIU/I1YTXiqTzokLEpaeMeSeG5mE78LTLIoIuc03P1/Q2/iMlp78nno7Y4ow8ChlqcGGe5Lp3yd0833X4SKr9mxSqF1CRNb0nU1jItXGL/J5n6ZSuV7Eu53y2xO4vG67Xg05pBRA24YRh4PCo2ROx/dpPBrG1NrHIxZiH/jbibXCroLXAier4CGi/J3+ZcDjrymSRkS1igwbp3auRoW0qgj90hHiOocY/gGiAJEPHIB6U/rdKO1/HUa0Shq4VfEozTQNPI858FSpK4CXrcfXTjWpEFP498nqJ40i8cEMvSqB3EiSbbJqAQunzgMnlvbKDjsXgsRtWKKVBATixLqoED7E+Bd/d4iRNmmtX1pI5BjDj90/wA3RWu1Vp0va+u586Ofq7i7riGE+I/kgwos1IK5Ad+wxkmO7/ZRcvpK0dgbrlMd3i4qKoKGo7QBgoTjfhXC+Qwe5QIy+rkWJB5Qm099pZKGwipeiy59pwtfFRD+Z0OzRNxRFZl/fJUpxgkRYJt7Klj4CyT82218vTFSsTHWuvLsg29ZGk7CLx6HFnKaG3A9nXsZzhUok/pvkIpdE4fEZ3bsBGGC0oSIBAblKucSkunvMiRoiyB1jnDxqtNL29Lw0vbSlDLXgrbgI1jeq79b2BhB9CnLGZkHC4xsx8QJHXP2OOxDedonHBrQn5xALbLg0hCAwqISDZohkf4eZpYRdAEzjbs67jJGEs9o23U7aEf7Ew9KyMXkdCVZAUpyVUOpE/f84kd/Kpn+H6eFXnzr+y9WboiFFOGYJJX5HZ0ZEjSRMKB9P2WUv0qZt7SvU0zdqDZ9KJMCRgm9KTuD1EOLAdQ6yb/28ALk3EsIUyqMVtFVEeL584eSH1FXZvIvspruQBPVETiU33vk3+rcGlF8xSWTNmYJEi+K69Eaf9RQlooR1v52AFwivjBx4ftq3cwDAGx7DO+9sdHLmCQTG3IfLHJnvbf3UpiiO431uyXKGnr11auim7UMNr+Bf5xVWO/TuxfKF/opo0NagQmcgPuD/AL8BOvMnjA9vmvAR/Fw4LYf572T0IGsnxLw9q7jMsamQMw69hgCCvvDGgfC9hGKPE6jzg2zivSICRq178i2cOSpLA4jUAArws8A1FOiqSVHb+Wki5KUHkVrMHI7tTp5SG/Ml4WDzXTZCsrXZojEV6Ng4obq5aOc7RRe0SLMlLZlOEYQMcqjeHfPADXYR1no6pB8XBmYRNpEkV5dCzdY96n0V0xRFWlZS1dohEQKi+JAVNtRCyiYZcclXUo1Ef0PRKge9PNCSKUnP/zNVcP0UGt0hFFHDcBm79R/YfJI3idw+G6KAlp2gI8k7mR7mkRgkZBkQQQJ+ZN+3i6wMdKWtPSAS8gXfRoX77tIaABitQWyWyg9pTdB/CkHOkDrvfBqtiEC/bbI8K6XOIdiXrq/TCMFXZxhPrfk7EWen8TXI7HkSxTI2+QB+WGNo7IcHBj6jNTq7CWFobmliHuzvc/wePVmZcIDeptdrKOI6kE5aUZ/OXy5t4PwJB+1mJfrnTr0iqbXZsaKU+k4XXQpVgjxdIEvQLQ7OeS+IotaqqKqp3sRSLpOk9BHzjZPcRv0pgNBdv1qrpInj3qrEqL/tD69pzx4vc+jteo/tzAMgxd/sGnFemkIYugFdGWiWzM4/csObOyjn0jE2dAKByJGemzooBktHAJZDjl7o1A19gPby7mtbB0Efk5GQ/CJJrVHyNJPRbTqIe2H8QPQFFR5gStkDjMa7vvVmc6R11OergKp6oTk6BEr4Y8ep1pfAjZ/YvavKBZIyvOXrUD1ZWJxu7j4N6Bg0mbDCwjVi1r+hrfUrwUBXyoBx+83Kkg4oxoizXYeQZugIxfPf4d6caTVHSxDejqy72Q92S14HykTydGr+1dZlkYUA6P8PC98UaeV+bGNpe72gYtlPi2jEoQ5XrDDE6MFFxfhquKZH4dOyhTkDTbRCJDpRT9j7PqcQ6Ap5hS7O6kVsOReG08KekCJl8hiqwAp0x6mij1RRpKAvDpsDLcYBDT5tnx67llCUhsmkOnmVAp0464uyekNv713ZC3ZWUSo1oAPLO61VNZqB0aAPrmPKqMlbBbshFb9f2yDOhqRZ+gieyLdmBwKlyAvTdXTLI5epJxwL7dOcixu4c9sU3acHroUo0PGgQnYgPsD7RBlPmv+YHKN3WMEz5Xio+IYOVFWQAUNoFLrPqdrNGgPZo1dZHfVUXLR3RQKBeS9SVwaRDjXjopOrG6hrfcrtZRnr+Jl+CjGN/e0wLTz6Ap9hWM+rFP9H6ceFpwTnCp3y641AG10Y1eyOJNuBktPehYmZJuu6MWWXY9EDr69LVV2S/m8N90Eycf5DpZzBgNBNpA89VRGH2KHnvtxVNilxW7R6Y+w9uE7sRpQ0XgUhth8w0tCcoWN8HhapNlpLMMFDfe/Tm8VRFZ2LZ2/s1SbfYMEiJn5wOrLKxYMhMzgHO75lz5SToL5uOLjgsj9MLiAeGs/6ARgfMPA1Z+6jZGL8EW8WfJ86ldNb66QPy3XjV2RuwD6k4V5cbnH6y/PszrmAkLf1+NetOMZoXflDn7mr7GNsrHmCRrJzyv2oK/rRhzxbrATODbLE1dHsQTqCXyy53jus08zc6sYqtEpFz64L5rpHvBQ41IsAElpazn7i/1HiME2nNVDTKQ9ejabvuwkqAJuvxr8C7ADx6xDX8oY0J9axiqiyS0qLQRXlnogSvRbpnhzBgrcRUUd9dh6QFqZyhqqSw16zR5AnnVQ9xvVQmBC5h4O3WfF0R75nnzvQPnZVK4y79Cq7HW1lV8tWORFOgmLfQWpjwPZSVNQIA41gQGp72NCYKK6yWDD3lBOhPO3K9QmiSbk73eH/SB9znAuXjtBcpFFDG4e/JJVJhnuM4taIuhm38Zd9c5F+rV9KRUdPqKOduF2Vu5bRt4W31XO9jBgOErNOA4haXL4VZFRsi1d36z3bATKu23QfzKBZnk8Tiaj4WF40ICsBYbQNoEXUhjTptcLBUxGL1DDaoPCEVBYwKv0LA0eqF5KAPJDp1iJKZnNlrbiQlf8wlUruIq/cTifZBT4ihN6CLL06Um3AjWrDqfEnJVIlFuSwTr8fJfKSJIWcX4kL3lKGYZc1DyhSJ2zcIr5C8eoxOrLeZsx/f59eS5cqvle0tZjNn6vWaI+rhJZoBK23iKH4jexgb+pnPf7xOJq14yCVMIc+DxHsI7G+FUb0I04AtvgN8pWyMO4vtJGVZq7ikpTgQ1ScJcGVh2eXzj8bNBCXIAnqvP5wv3VacnBwgOloQHWs56QCr297CCAj6xYoZSGFz6jNENY+3OXKSmJqkXSe8o4WTZaBHt5ODV8l9lj9+Z/yyKBcvnJqDv+lyTJEyOx24a4YMEnOvNLYRcpobx6AHx1eJ1lMEpsn1qeTukC+rmyDT6fPOazay4ijHR8J6ttWeYmm1wOo0PGgQoUgPsDUHs+mZHeiUPDnLjB9RS0WRpq1J3Mtv9LHtnYIrpUSAFWbJLHpZWBf7byCxzsmB+UP1mpmv2OMFeoqREks1LyLeIk+Ydl+9YOcrIzYF1pDKKqa0rlha/d4HnDcBWPNYEHNCElT12d7Qigj3AiUgWs/PiDRKlH4hNCcLBii5mvveySpE4Eorwgaun3+bfhtsQtD56YCJtGClOdaPQ3UJMahhIWstRAWKBIEFPuZHC2m4RO4nDz7Ulw5a6iiPZ6OgoClMlhwYCUAd9QqPvTirMWHIGnuKjbtInCHND16ET7kul9RWYXcTF2w5pDpGoRwruwgitcvjYSCT+jFtal1h0xC4eerykWk3GY2n5wZf511YH7Abuhaea5cyQETMS+dc7vIF3cUZkpfgItJ0UHAfyhi+Fzdtw3pjd6AeClOJa8R5LyspReohGiefCWu5Cnl5/rQ35uxiM0tcHdyiYI6BLvYbjYNZdKf1OXY6SJ8C96h3swjHm6vbTbBoOYwjJKXysWPzFyphWLd9zQFgLHN0YaD7LMaOSGI+mArskPzfaJ5l6IGa9Pa7ApMcRpAYvgE5wAtZ4JnHsDDbx/PUDY87HmInYn093MzsHE5aodmhn3qUFVroUmGUatoUHHVGd34+cVNGH9HLyasIPBcnRUn+Zwxo1qgp6RxnZzLM7wynoFNXKbvzJUhrmdlEmFdejlkUmjObeYKn5J/nC3o3pU9df06ayzxtmFDPVRGv7dEPeZbLHe7Iw3H8vfdtW2XXuSI6y3DKCR7FrrqrXrJwdEZN4SuU70EwjOWGA+H2enUwOEE57c/3jBRYkpv2hLZCYMrkCHt9/Y0TJlhztE1VOOyLf0hu/zfcN1Wf6M4HYB0mrHHqAB9jYWZHTUvpceCrgx1es2bV+DydnrjlXBB8TXN+wWrzTq1noGK124Mpj03NQ+eF/+X0wEHPJ4FGKT7J+FS9OLW5bPQdudGiKiAmrj8sQtp3BXB0ZwcQY7yRtM42Fwo+AWnDfnDLBeKOFPa9RrkOaK/KPARHS/ThqgO+1YRP7IjK5gDWQzZ/lgzVKyT9jVwq/56Er9fYVomxWF6YZ0qIZcB0aeVe4fHJZt8abJ5jFcYjwdq6vDLM9vC79FrTExmpx4BQKA3aQj9/heOOffSdVVjUSy6YmTuew+XXQghh4Fz75CRnH9+rKq94i+7kTZJk5ToBfcclxx0B3ihooFvINBfhOiJ7AhFeYxucAFUyY/wG2b0OLePJIPKpu4YmpSazwyzngr0ofBUXy2yfyNAQSNo0PGgQpQgPsD8iKab8GAkoVGi8aLRptyG1v9GJGYTO5mg3mucTw0+/e4xZfDerKF5qoD1jaWQ9wIfl2WHIhXNzDbKd1DNNM6NemeJJPYyzA/v8SgBbXETgpS0Lp3kHkMnkxJ2oPalOD62NS2l0GqYe3gLjN+EodOxmphuh0i/COLG+MJXZczHBcyOzn6pcgJ7DjrahjzzJsiNoxeitY+65HHlANwb3YAWWruRbv9hTmLyhPZAX647nD9aaG3QsioOXjld5XyDFpfT6Lu+FQ7qU/0AecG0UnMk5DBKIQ82WPtRP/jm4Tr7YLfRbMxY0/jFHjydubz4uGE3EHB5AvG9LRuGClu7IEOZGp8mG/8c9WY5mnh3WQqUzWgidPhemOQQelP4UfiWvsoaoNFCqk9LDaJVquI9spM0Fp3OW1TSgtaW7RORZt6ZITyO6Jr0IIOfJM3tPUcpKc7qSwWo2ipPPd1UCG4xmX2v53zu9mU7X90i4kxdBKfM/3m94Jm87+5htLlkVpwRcMuee4broa6Ll9g0gLO8nyG8jEDWcITG3dtA3UUqopSpgSS/JuQZTnU55ZhUArXcFyUE1vEElClKsPk4EE0bvOwxyT/zTxlnrzpGFMeJdhWT26/YrVGFxX1HDu19shjcqHApYEsATBz744x2C7askWSvP0xUcP4wRfS6aDSpssi4MJdOak8dK/IvO9d28Qh3Xs3WB0q0e7sqAa9twa8OH19f/+q//h4RG89TrGCPXzy3fqWXZCGiAhj2eAht5dWiaPhy71Pc5R7xkmANEcuoUIA/nSKtwkzwV4sJikyxqOBiWmeNhJYpm3WIlSsWlvk8Z94YkniJHwnpOrqn6EwwmlkgPIhC4FpME5xJoCfj/Ae7/LykcFLtJO0DrzCnbMbFpGP9AgTBIArKQKtFYtEaIICchGFi8/5K2DBHfrt5MrWgiq0gmg7DaGnD+P/FbrP0KieO4RZT20gOMdxW4udKc4r0OJ8DR32KANbmDhyJzB389UURqhRKY+rX0ALqzwS+tlO6OoVEIqW/mZj5e7Sq/wDim0pkNJbTVr3aRF28uu1wo4GxM6kVKHhI9NnJ/t/YyErKseRJOyKOO/Mc5v2SICbmhjdPKL+XhxbKv+9CMpEhMcl7XLXkOYRs0GvggVNG4ipzjhs4B8deScaN7kjRpncD3FKDh816N9N5i9JC/oVOCs28IW9jUX+fcKKxUhzsvuDiQnOquJ7rJ/yYhPtQ65BsnykkzbsYXQ2ym8JRBmXBOGS2XQeg0L6xHFIwO60OhSJo0Q3gQqMgPuD/BH+M/JA/lPgwGUD1htkcMBjWqh54SS+Vc8Wbt1uRn7V/90RY0m0VnOjLEY1JDzxOnRaPA89TyjBb/DN4gzES652YJp0VwNZGwz7xp1HqxMZIm9c9CtCU6wIk4EYheXLA/nNjhJgTLzxbM8lvsVwQg69rOmxT6CKpyW9vNrwTnoEaF1eIyDlB1CQXXJVasb/JQCDrpiYExnlHouPkBO9OhsHYDDelaR3PeKXegnd5qX/Lf1iwc0h95T5/aK/HZgjDzr2NxNOKzFLKhJ24e24e4oPK0VNI/qHJRj2wqb7/xomWV+//9nr03hWKfSMBFh0Q+DVu8Nup4p3NtOl+VJk8D/rY0f22kg4SoL1j13yL02ykDf6qknVKhzpMOuCHKIdVWBeM2vsF7LgE1A9tgpXjlzEJ6loH653iUy/7vcurJ692DSJf5J7eo5Nn1AiMG8Q/h6uB3PPuJjJ8vm02Mj17m1YXrCR9GkLXfV0cYCJdh9n/8nm1d/S9xNN89IWpUgFPf4rKghccfuIuzJrw29fzMttPZe5NzpmWIpeALOfgRnNph3P8ezJLjeOjQ8AzG77EPSrmZTj855XlQBrsBbSC2B+xXFODYIuQEiAmzYpHtn+LBBJQMGSJjcprGbnFZJTvEl88BEZVvFtcM6O/gIyZ1WBq8zp4UplnVbWWwIz8686YDQzMnJ0HmBLkv0Us/B4JjJRSloh5yRIs1LEzqcqpKCLFr/7AE6eRbWPhavUWSt6bATsa9r1Bhc3jf4b4W3+/uV/MGAah7veC+VdZ1Ut+yf0KVTLgTZFu7AZxnzyBj1upcVQndWzOKnL+q7iHX10g+HOx9IVXlyHNVSlec08Xb1XvQDuOQYenYq2EGH+iy1L3thGKk917LGyCOzKRdT/Pu6wIP4uE9peY8bYS0Y3Tz4xsgVKHx/B2/ncMH7y3aejrHmn/lV760bOu22McJGY8VHp1yaUb9KG4IkEaIdfcrHsLcI5DPzfmAEb21puSVw63mHnr9GiWWXqg3Zve3HiIBBFGAxTokz1irJj8Lhetc3fTBN08h8W8SLx8J5OfVAO+V5gA964yFcVon0V5nzalJhscdqfeB1zKbIxV62eih9tCayyP2sXYJKZF/Yuu8SWIFA1CuAW5ie3o/sADs77Ia047o9OoRwXXPDUvBAUI4yU6YaEWqhprkcmYbYTpXT0eJhITZKYmPaef3MrbDzf1gHEdNja3pT0kjdNNYVd1oYT30jgOmzaA+8Y69OVbyl/zvWhmcCQUwuzS4VI2y6VncDTTvs7vU3TD9V+35vG2fORcRi7IIyVvEDZ9dBBg4fceirVGgEfiA8lz1Q6HmWH5X2zg1ZQI6r3gt2q1LaDaJw1E5wDwGRKtEg8uxO3+VpIehCiNTN3GaH9r4rNynTOylLnjXLZFkt8KPqlhODMcrCjQ2yBCsiA+4P+CfwJWuDafTLoSwX9iehMqqRS4+1P4OjBetobjQshZk9x5jBmZX131+mZQA349a5QSMIIKO5Fo0MDDax3JwfGBi9W8Ws8IcmjsHc44/B3PI4eLHE3XzWwKjoyFbP2v2A8iIIhGkMlvSOxFO5zhyzhjhhis8o8KrL4ToXvkfqT3lqthhsTV99Eg6bp67HofozZgxYdEknSwiTYuSTZVHqVwfqmedxRXDL6eauGDMvUPj187PHUVLZ85RI1pAwXc+071EVLUtWDN1w04YGWEIvT6RVS+AxbTirvH1nGfE7gbYsSq8mtRqtKPuO7IcTdrw0cHqpTRXYPTomOy8sqDwGsJMw/44MagPX0yNmRrjvwyK+xduRyzUhTUZ6IL+XmD9gakGuPYCJbIwYL3yoCLt2p4Zi0CFJ1Bf12IcNR67nU3Z4On92ySpolD9QZmezuRjWVkPebJD+yNXmpQr7vKYGZJQYehSFcApDiOH7J15n+7FkEisIylUxpEgOa7afiAC8B57TtvUzMMOj1+jclE+I2ZGPpaG/TTgJOJLJO9gz28WmWOp2T/qTlD+xrF1pJeGE2SKUNL8WfysdPzHzGXz7ck2FhAghLyFvRA2pKw/09f+004k3ClZgGcyvSZvmlIohxTJrnZ2uh8pXsmIbNNyRUEeiW/nkxaeiVN78Si2OX8fG04OaLIpG3UHSXZWUCHfTsCM7iBioZx7wkY4rlQW9+StP+kgoLDfBiEQuwbEV+4uu144u1gNvoGMMaXYqRRYlXAlJ2jZ9gcCcftqSOHxtLlTonqqG2w8ktsy4a4gNTMS7Rh1LBzj92Wh4yT2Z2Hnu7kpVTZiTok3X2jUXcmUegHAr+QKcix8Rf3Hq1E52x8s0oYc6oeS7EpAhuo9pL2ynHdIkVahoPvQ6h4AEbigKYhg8GQPDaJpKuZudwPnaHrNOs3JloagNeEOoDG/gBkLz2E3S/CYKLS8a30VxpjMDqB5K0w+SWJ1m3huMNeB0KGPBtcOnHuWZUsjNFf5MlVyozlMvLzVA8OS0xCcYr1Bac+BiaMmevkzmXojjLaBmb4SHwP/t/EoQhr+F1EIQ4POiYYkQjUSbuxTpirIhxTjI+08I424V1umwa2aT8QOlSnyey7zgxgfmcleZgfu1Ho5uTBkozA6ejQ7yBCwSA+4P9DfwRUJeKnVz5gBaZAUS/8zHyW6XRczlNodE5MjG6dBZ6bY2N6Ia+1/ZMbppTsYO1Jp0YmqGK5O/IqgyPqccWjj7A+uIEYbhP6RhR7+HbaBwKJpWUlfc71guIa9Zfw6ZHYTkU7qIM4OynLu9cYtfwC7J6UMCk3eJzJy51LdcYPd7rZRi8inxomHZciqpeHN5h3MsoL/ZIx+CnFiKNRgV4mxU0jgcYDtLz22syzHxWRi9fmAVTnS3Ixo2i2Rukh1CCV7wyD3v4ioeJEWdt/yvHOl7ztD1yoqYqjZFgOH2EyQsqbJv8T/4tjBO9vGVXvOjvPvxC4nQNx9oJs17BQtlJW5OLeVV9K8hkZJx2WS2A9zrhc6dQuadQknErj1lFsqSR9QN8jtlV8kkjNz287jk4us89uiJa5RDceuzaVRR5JFQ+1Ec97vjc6gZPTeFVl5llVgERnoTKTCvJ3Bd9TTB8OY6GQZzIOWiOWGIucrBIa0aj8VF590VKmHpu0XEDVxx/jYiQEUcqdLS9yfbs5RLY0nXQL9M8nvG2n5bEnDZsj3vEdQJGbF8U0cr//Nn8jvbCF2Y8TX0AqZ4hWNn5nARcFcJROr8bfKb4T5PorUZNCqsOGIYNeDo3tvbVSM7hSBx54AyzGZCWyc5NRWuooztgGlGBKPYygwHP2PPmKZz/2fRa3B1+Nj4OHkVKqmhFF+NVQc8KvLCfTi3Rjphj/ZMXVpQvaim2HGq/Ou3mgucwg7dr5Cj0vKa51NUsteG+Smh3YMXcwEhATxvMpJUDNM4TPDvq3Hn0CAAVxsjX5vc05SlTZageQiVM46sVy8Qt8H1/AIObE7FQGCkfr+vjW4u1eXi957iOTKIyJUQAl2ZPLxm4lH6wPwWA2o2BY9qdGLhjNuvin0S1hEoduWYSRdJoG5Bc6RNvZHGv/KlGRPvThaPsg1/D0gHYzyaHVi3nJ/7Mh2C/tmIAmb4ShglMZTaAKtJzokY8j/CYZy2A93coyvyas93iJPKZ98hc/gG6KSFY87S1XQTTl4ZeywDf1K+9uJMLorf7TvVlYqQg0HsQ2r2Tzn7DCBtAYvGFtGm9jS4nJT2CZhBXIxOoZibMs3G0QYv1Bt6PXVO9IVcUCG3c7zyTdRoICse+9Td6fV/7kcv/A62ws/C9mM5NGEkKsyPKrYbvwb/20gcc8iQ2dHt6/plLMVhqgn8hBOC+ty66oi2+hNGcfF7IPyVHf8VZDjKuJOXPIlVOKWJs9vIVIxRzyHYDk8CijqNDyYELQID7g/8Q/BFJO9P/X5YU5KPy14lU7HI2siQF7XAPmgBZiTuESnOFPxn4JTVCW9Z0vnIHANc8mk28Y+AXdGCTNXvBnDskZ7moHmt8mvwKLk6msDXJNkvWTuM2WvN6BhBZTWODX003RARurUXTJB4pk/3ak1Z6a3M7iwhEjP/PA2IL1ypW/Py+1GzX5t1OEHwFx3V6Cdo2hLqX843aQSPQYz3HaleXhY3e8Dh+L2k2VT62xXq2Ubvuy4fPtg8CQaw3TG9eUudGWjnlys72u6iplGDFZXdvIX6ElyRXM4OODs3yX08nQknRlxeNyUxEBMyRMXdtFgxFAnbr5ruxn1hp1QDEdT5a/4vJFl0ly2WUgqdqxg50z88kyA0r0A/qbmwZa8uqSS0mVXMSP8NAFRFCQFLqfc63or4h89J1u5bNRz0BCqewrwBeqws3En1KzKGBBu1UO4cwWfuSpAw6/Cw2hYM9TSXdCdwb0vgaXw+BF2xFfjgtWd/PsF4F6cCyASwXrDCyAQmi2gxpegXOXfX1uRFTtfmmPlHfgDe/Axs3+2TnVVuSmoey1dA2XdcAVqaiWFPcMlIw36vrs+b6lklC5K0PWD51ltabko55uWDLR94JNdceR5rJxFzt/oW7YY4wIVIt9X92T66WqbuMX9XELytZPl+u19LosdCJgGdoFqC9dxdqwFlimtDo0Qk7v/4gsbf2Vw4ylS9KxZrC8rZi1TTJduM2vVGbCfluNmKt5yrAKDt0/613SRHXvFN0BVMDafA0wqiuLZ3qNIg6RGeKMtB6dQ5So/8zBITxjrnE7q/NL5Gwx/7CXZ1M8Sb96RlMOs1W1fyKzugrPE+QCyFgMcl7DVL9vt6rBrKyQEumSWJXqVxBuUvqbgOgNUc0dhdwGiWNVYp7pYQQzUHXzlC/78EXQOOElthlRqHsQLW/p0Bg/EMQVac/admR0fDFdQPmKcg0gcXyzk0Na1MVH0qHRL2KRM7RsMWMIUxf54oz1tov9S8vufeyWyos5SEsJWJ0ic84fi++6JDQS8jTbUQBOQM3sdtwBZseLfbIKNJsuMk2YNLd47VAw1CHRD6SERwUc9AvHXbu5XJozNCsSN72LJfc5WrxMGdCAvHbYewHNlvZvVMSmZv0XX2UXTdpWo8ikXl/glBRuaXfI0Ri7Am877qoqy/dP7HFXG8s0h5RFAXFrNXfy76TWL0SUBVYsQ8uvGMjl7JVFLgRMypHdO9Kob0nL1WYK/bHdNCbSBoWYxffxKOkjHWOKqtrR0iXtugJ2HKJLueI2qNEIoELfID7g/8T/iGuwU9BYLdpVLxxLW7aRI8ppf3n/J/jaSsEPTFJuCSBHDNU/qraH+B+nj1vs0QOxFueSC+5Sm64iJNWDzsthbG5qoEin3UxFI7fmmWe+CBOzRqcTeOnxSQrKU48JG37jmTQnx8eTgyGIsENBFTm5IEkNv7zgWP/zUymJfV9I8Suqbg2ztcTlkCwA83e9WlXVOs6AQAdbGv5tO5jfhAIWmM457r0pImp0jWWDjr9SkW9oHZOqoxI9IjFyU38Z56/HJfYCEX4qixUVGKhwZz9mbaVYTCqe/uk3tF6rrsVVPaQVg25xKAk/MdejkysLNjrZ+B+nK5kVZC8wy1mPBE0V7EVMTPuJ/pfTvrUqNlvbE9MwDTtr+VJpEVQB/OSCvzC7VevFQSXzYaRT06Wp609CubNIJDOQE4vZi3T17tSbUVR0doC4hbBL/guSQDYtImGeOR0twPT5fJOdAT7WnLyNKz1Ici6m7lgOx5VxtqJo/q8EzDErJmq1qUSMeRKyXV7EBSIMvAeW3mCrF4w4J8fvBisDh2PzSrfHqF0rVsvUo8M/xGRY8sEncHTvN0lnIHsmSbB8FNwmQtFVawwscebF5c9iKNwCROXgdTlOGuInR6nYz03ldQERSeHTb3TLVM4dsuipJdFshMpzqPTvB3VqQNNyzNFGJ7+BGy2MJwf0cAzQsIf4bpaCq+7QSlaQexIy4CsQFJQw2VrnvsPkSBmlj5abskOB/m54xkw0g+qJggB6OBo1AgBFTRY9XKS/eAZk/RIsuenxplRah5joBHvUxY/kTXmTCNMJiqJwdgZx2qSO3LbgbG/JBA8J5Iy3mIo8+ah1EhDCE9nadsPdDNZ0NbVgYbLTO25GheTX+ji8fNsQeRCYPT25+ff3XyP3UB56XezFxRxuCIduoBkB234kkOU/fsbTez+PISpzYSRPPyBAbFIKnB5yncpo/tBctisdsHRs9MGnYt262b6jxOboDltSM1rbIe0W3ybPwmGttQN+rfiOltPfcAjbaIOgHxt9c9GwUu2KIR/t6CChlou3gv/98Jqkj09P/0hmWyQvACGtdqkjP36KtqfOqW9+XKvwOaCNmdjx7oJvmGBzHX/3ngO2jMbbMM7h/Idb29/c1Dt3TMJUjcjG/hh8TjN6UnyUX1SLHpd2Jis2+lALV5uIyW1cLoJYgGZrjw5jgZ/2WKBEGolpxlIuvgIsNgyc19z63mWqGmtwW1y7R+v2k02VENIyLxq5NUDoafhOeKTGml5gH22JeRn4n/Q9KT90cTJ9RIBPiknS5i/eF5J3DUFRHbG6FZ99p3h5RJRsAQbJOPsYGWhulrQAFxSUo/bc3QyKDyAcbfEchmGA2MmoVcShF7Djo2H1jHevj/B5U2heqEW1DSS0A3abNzZo0OhgQu4gPuD/Rb/CKsQ6mHbmjhvoM8y9nJMYKW/dEW6cfH+DRW90ivQldzU9Ii1IE9CBvftFKir/GO++zU8zdWvedal4qqswklToxz4MYrzwaihn0dVsopdtoVua8G4RWOOfsSaMre6lV/jD2VX0DeAg4/I1XJepDxFXJZIM9UxP0Ll3lJ7gXTvSa8+82HIJ1bzQbm7rwQEGf4bZHp66WhrACPMs6xZ+OaerwjFMp+gENRcR/8ruqEuF/AcTu8toeK/fO9zlTAlJ0JFsx1CBCp+W5x4OtlqUBtCz+EirrXKLsVsbHsfYEFDuwAzLu0tWctRBcgkb13W64dLav08jBaXxq2xIqr+k/eLyJB4xV1xBwpo32M9onWNP5wBcxstE+lpuxCn7WLR0Sd59r+Vk6d+FIEAVzTN/TqoTHU9TKBeMV5fByC27434dY/IDoZ3QfsPqUW2iIH+uOq7vd8z0C7aq4juVLNOZNjBcCgM6fbc/z8B38LqoF9ZChzdcFyI2z3L+e6D3SpdZxJYSYxqpDK9kY19rL02k8p3Ut6JxZ54cU9W9OX2yKOJ+ANGnpWq4NLZTxP+ZsgoiKI/yUont7vLGy9aT7x57ny7yg9dLlOwco8ak23mYHxxvYREceF8YL4VpioryBgWT4Sg3zVKzjEhK3U/6tdLx4XUYymRErR5dARz1YuxkmvBPYgS7E8KMePF+cmULZ3o67HFQW8RM0kQbEZlRHojeMO/SUwSOVAYD5PynzibajAe7ASwx7KbG7ro8eE4ge43P3yXJIrgf0NC8gRHTmPF3yT0LGKiJnCZ/92PvuaUqrFn6LBr5RHkRF/LTR2pe40+c6YyoMMq7JqqqwGqonllrj2ppvx+NCwHMbeUz2Kp+aOw1dh3g5CVp97ZsVhEo71FJmZZDhN55OT9QNGfQprOp2MS04QDKyanRc2WrHQ8cLSbkyrxQm7dm8GSmoOUT9NaFdN2CJ1UMQoKZIKJfchfPeJvoFL9LBUxM0gI2JIxhYE/lcJYOhouVDWlQuHGFEsJio31e71/fDZf9l9LCulUBD/Dy5hGLGd0smFrpG1Q1q1gUNeAU1jVdtiOF0f3RU7yjyaCe6DNhvAoQI9McIA7ifzIEMHAZLPnQ6DB9va/8IzrfEUa2lleI/Elzg9ZLMJtWw6NCAcpgVPmmmegn9DIaN3SUveErDU7YYHDEAYwCY6THu/eRvxLmiHFqQVl/GVoIg6mtHdca6W7ZJijQ/eBC/SA+4P9Cv0Xqqzh9nvnnwczwg/wn7gKoGWVJSI17Fq9Qlp71kwifS78cz+xDL3GOxMGos9hhszRyU2ZyipggEBaRqsyHFdcXFb0eoSBiWxif28u3875+ut6kt4/BgMvYR9+BHEQuhXmWAHN1ygP8R27MOLgKpcfd2VknbRQm9PX5/OZfdFQCDyBVdFA6Gm8kJ8WH3j8GIrndkH/jdXs5sWmNExMil3VAB/ep9KUGv7nmgXgdYHJG2YgdxpF+6/re2b+K/JotKI9Q/drNY+2j2469uRphhaAkyWOicrmPZSzw6V/aB0BGdcQu6dMPoT1BGqCAWAY9WMp9KbAYsmLNv4kubB1sDc3jSlQITsESwSbx5EkY8UO+A2RxtEkTHiX0Nyb/YPuzWwTusInQpfsFU934GCSb76oi4tbXUN8/nM87vm1smnYcWwVxip1JI8f7L+/UE9LqltUprHBAIrcr07VJ2cYiw6pGYNmR2tq8wRHzrLSVzzEk2ikTSrjkOBiiETNwzpw8QDNfBGyoWEBYbvr4jRXY4yuWzZD+ajsRjCz/TDhIQjGIMIistqoBEQsMfKyPzLH0GTphZdi1xlfyWQvMQ6jeLHu2i54m8CtWlLIbFbP32Z1ELQN7WY89tElgy6nbQcz1oEw+fb4H83GWiNFEas9bnUPIaaam0gM4EESZjlI0HG13wg/5MMiX4k1lnFjeMN3vY0ReIzzly/ZaCwaO+lHemdYSkG61cPL+6hZssBMl1QtQutTptr8RuZCfFdf0mZS4FvyWR1Hh4WNDOLdyccugvO9sqvxbE2MpQLBhnQOo+qFNfYJSo2TXJtZDonR6w5M1GIP+jEbyTBU0nTnzSvmWgT0cyP+ojJGN0uyln/0lBcLdsnTGFjrAGxcLdPjUhp3Nvmnobm2uVFKzZ9OSpx/N27bWP6nG66NxPFR8aualxbu32Nb7YnaRCql/0PWEtBLRTUSKuctmZ5HRmzQ8tm2PklwAIFihVLo3YL2uBmy5A3fJfXu+9cdLBUgSni+k7FK/7WCheDq27GIiB+uTMF5+WuT8n0FqjBgtUdaIoH+B1xjq7skLIu8+unPbYULzBoqUwLe6UJD7udHiOWxKmCVLwvOFfHg4pKxWO4EAPoljIrC06jPwEan15Lbmc8Z9hsnGk4KSjAjn32KtNB2ARhjf7GFEDQedOLTEEVfTIJmuTJABOa1s2Mj4g/FXEbg6GAj8ZNmz5WTgC0+iesjPHdc1tVdEXX3e9PUS0xs+MltPZ+yM3hKB6OZwi7H5IhW5krlPuWhRe3DqcdQ8AfkK5jw8fx5t/gFB81uEkj7ckczA+Vu9FlIfVKywsxKoPC5r1oFo0SMgQwwgPuD/CX+Ha1kdrzmn1gALwiNxUq55HX7gpCYAlCM4COJSvI2v/cWl8pQ2+VROpa1dVjHbVN4ehGkv8r+n+2ALpzqYya9jbGBCL7faFuf5i5l6ewuA9+c7stT9WFAZ1SreL1TtM9ilF78ScDr3k1jwQGccuM7lfcT6q8dVMHUPaUrS8NeuDrGLmC41YzG4lKFy6wLcDHpoUaduiJyifOzb4kssGU0iMFLPbyHJlxjFPBzRRa4Lb+SrFbZuBY6SEXFQae6fO+I4ynIWRJ63Yv+0i1FPHxb66t1Uo6zcrI9U2lqOpw8L0kxDvMZrWM7aDj/aW7dHk6CRu+EzyhR6UzdzWk888OV64xARX/CtZ/lZs9h20pNdesFPtzX5vcntnQTfGq7tP9XYABlQToxjR0O9xMxdPCDETAV/WJMbLagXRj2yf1CqW+w0lOeLdH2MwtaCC6BsF0W1Fg/43TaQnDs70bLr9IUdTiGTr4LTK/AwvcLcfkWpmQkqedLFtTgO1BbIot2M+gqwum1BJYmyKN6JeKefC36tWHXUS1fkintv7auZWk7nhFfHfuVXlBuKA7dF6xsbc04K/P/qXJAL0r8ElcRHRFRb0U9vkKcKq1RXgzBW5AaiL7temlO1Qfdv8OfWRAUrugjMhYYEvfT8ctkU0WS4yvoRJ0417Fu/4xMwaqS06JbiX/PLRBUdIBOI4ir24gCsi7KNNygKbWmOIGHpOzpLdtk7eaO05rQpqNQophlAqfF7nZeGG8vaLtuLK1eDfUHJyQ8qa9sEY9LbKDG5g2TlVEwLcDHMLmMB/ea04OZOkep5zAdgEe0G3B7bUyLqHQEHnQuf0ozUqGS+d2Ana5M2eHPycOjr0zGB1hYPKUC+4RU8GgpLpgetuNYNE2bllt2xMzzkcVw1Lo2Nbp0fNKDzrrffwLUl/EwPWKNkOO8AxCHD1gVOSfH+m5AL9F9p9j22EffuG5L0zNSkPLVlNCVmFOzzM222QBa1t7pf71FodcRmmrgakpjTNchJtLp8ykTHG2Ymm37qwZS7eiU+DHxkgpOrJb4IgY5ei8LarMN2+NxVE1z2hIHNA5Wfi3c1I3iJcwarKQxAmU9DZOR2hdlhrT95UGbl9zuJ7oDCBhC7Bb34JSUQn5shJJhIAhIFuCxBiwU+92AiIbcjbiV2rAwYtqYV4Dr9TjMecB5cB+dVlkYUSUzEm7Zi+R+keEPCixxGoQfoMQMmmeweMffllYij32d8vGKU0/9y5PahWXgw/vQXeSOsadya9RxDMMzwua85KiCDC5gsHazd9N2NUB3Kgogxe2ic9qmUXDsr5IHSC/kpBlRoJ4F+69lI+dA3YMJRxt6quZoLtU+taoZ86Y7MvO0kKNEw7o9sM7dCRUkiA+6X74L57blFLQ7xLk1wJ7fcezRQW5ffgFn/q2vz+z8ylGEsWOqsb5wJn6HEmKqJ7X3ddcYl+qiobyEaGpUHkb1/nxM+0ackeEj0EdUUrMarZMDQx0gD0wDi7P5eLYdIRo6NQbAwmTITjUL25JAx9yRiLxWW/Nmo0OHgQxsgPuD/Az8C6sGtaKLVgNnDD1cs0XsCsy4A76ql4XgG0nCJFjlqdGDtUEfOlgEfuaapcuh1CNK/f7SGVUfbQwWRNvUcg01CEJDnbPGEKCSQIEJa/2ILRfw3+ZvWIBR16DjXYZKtSYckn1QKsTU1YT0N+JEckGZm2rOVwtDa6YzOrSgHnSHL0n02TJa347rcCG42P5yStzMufXK19OOqzLnfn3hZHmGFC4FvX6l36Hu/dyVSSWgbP+QmJuJLLcyvKPXRM5BeGJMgU9DEXFouKyxcu801DXG7ZRU3FTOvbrGhfjAlXHNrGVZ+CDbzS4gIb/Z//LOJBvXr7hzSab4s0EhKZjrJqDyI5y2EvUOsP+ldAhML7sfOWXEk2f15vKQxT5qWpZ8TJotdTw6zA3FS/6qs1sPZqsGVt/5LqtJpslchhq3pEvs7B3BwTb3PMD9ro6WEu3nYclxrwwSsDNinjbFV7gOUtdMGTprvkGRcf1xtIPlpEQIiT9OFCS25RTEp+cEv4uek7u/QldJrQrZFb14fqjrosKvrQ+k9ypZKLifJWC2U5vCBlvZvkKYZLOFEvb9LSBdDvvNI/rGDfgS1jDuVqR25Ri8qmzvplH5lN6XrjTKHTV9jzKhzprkWeu9OXNfkigoNXw/ilkmRWHZ4yDUDiL9wKP3TVgk/LYYwfwaqy6MLJyXLW1QS8EKINY+e9xbRS6/YAPuq2fXaHci9Vv444v6d7Tun0jVWP2VGeP+2JOwY6exbvje84iE/a5kHld8eiwMtgy9v30M93EKtkGsAKQ530rQ83i/XQVmqwZQygyYmJz7hVhvHP/HIypvRIBHFj6aWsKic3D+WfkOJtu5zvke1IkO1tVt2SX8dUZiT5X+lF5JslNF1zIhohjlQLAp/FOKVUqbbmVehvWei/cCWr0NRhRyjU/ZAnQ6Wr6zwfXGjtYHqzUgx4F1MSXJ0RXk7HjKlVuxfaX5WzHSIiX54GFozJz+RuN8RhkRECoJQjNYnWuCGk59AlivFxUZ3wL1y8MRjdjkVLj2Zq1YCZrg9qo/IIfo5w3yDTRg4KxCAviYDVqzhCya52kuZNTPYwSf6d1KRhT8iOukeaLlHJBffqlzWHgHtG2HDceCDAm2zU8Ze/v2W0nv7bNdKAreIqL2Fdhpyw/Hza4QZrNaOWQsZpKXcff8WmHOaOaO+K6rOtu6owloo0PlgQyogPuD/gv+DK1kLDiJplbTEAh5uDL5Sjri4gSxbPYinVkPHW45LT7iS/N+aqc78Pp8ku36szwne9gPvFOJ3i9bbWhRKtXrHriaOa7hWDMuaaKWn0NWvyCcM0EjZf+aXTIucRz1gLaxokGcFgEgMiUV3lCVPVNSmHlQ/tumi5dp3Bz/F3q/1vf32IhN4oqJl5s9qRAUGCofOzySMtdLp0RXSsI1+6hnRnZTVAYOM99cDeO7U1lgalLzPUjIFWvKNzFELQHE942KJECXa56dn1JBiCb732KOyQ3o+XiqXc0wVZ0L3F6HuXwJlZM/u/8pYZ8pu1007DPv/ta4D2M22gBw7jz2PWnYBtb+5ZbhqkKvb+HM5cH1qZ0qJA4tTXB2mNfalqRsvmitXazFTVpiKLLjPyarBlJd8ygdaEThwz5xDSrPXm9nwKAQ02xwqfZcMhr67hM85k83YU5mdbFZbYK5yXOjuqtbBPVh+KqMo0PmNwp/Q9+7qyBcn+XFtq63KrttYAL1Z3H6/viYuJQzhk3EdQ0mJ2lMgJMHDEeQJ0bfHJyCm2t/QvHdZsNVo/keGlL1WrCBz/CitfBH3x89AfDyTs/TRDINYMuYQQZrF6OvisuTIPVz3kBu4BjkYf8QfW1CNgUwT3G4cguX4TzYYym1yeW1owa+VGadi2BWzG9H1ec+nRX0orrO/xQE0qwzrwMlPr2Yl8k8+VSZq5st64QPagoE8uw5ZlB2H5eXL1ZTQIJ/OTFqQvgdHeAE8jzWI0P9dGTdAqTwcUeDHjzFQIjhkfK11veREHtnDqqt7typKLStERSKVZ1fXPv8rzQiBl6x9vJH8mT7G7l7p99lIwA9vzs3KfQIbQn5pFawUXpgATLTVvttWJ0qPfO32GfZhMLQi1g9r+inCUumGkiioxgfrK5yD88q/5ccyRjhO4bdrWUglBfCNC3INyFYbEFLGtr9jzcouYfBWC7+2+wNs00Sp5ujPeSbgSb3DIGS0unYGE52YbiIxDvYNjmQZo0shABG/0DQ/Zijt4ZWVMB3r66OVrjmyEjvHOLUIqIAXp8ZX8H61+E0hXDkUeP2g7Bwf8PL8zWCRWIPS/rH1kqqUy8SKjd96YkeIg7rjBv+U85iDorpzpM63Y+Hj5RyzNzj8LbUEvpXHRezNnM5bdVMiaNGteOowWnqo/MiXFdObE+mDDdNX8HD08ooUmhkImRffnPhsQNqb0p96gdN8AxTZ90yV0BUCVSU0uoeXz0gwCA1CpYgy69XVCuXQ3Te/AMtqfHzPoqfEi+3sVyMAZD9tEPZtKxzOa2kWBtdSNDSim6PrSCQqKND/oEM5ID7g/wM/h6sf1v9nPDt14mvrONtBuUctiqqkyTFkullArjHeD2U2b8fQ6//c1aEiJ4Ixk4WejUbuEyEHyY3SE+1y+X2grkS266w5GKWIOHE/JAti4fWHFPB9/Cf2cDpl4gK6htsvxEJTVDBr0ept9Ntxi4r7ixkFVCQ/d8X9uVhEPkqRORVNGJhYCHKBoWHfz/fS9tGwLu0qyTtPmwZ9Pi9LLsNbx8eZ9T/+WSQcmejfS1JEkVj5Y+yh8pI+SKqgkjmeoxM7Q0itcu9tWqIHQiloX47sjQM+wpUVsiLN4tQ0lweGYA/yRW5DYZklP2JEQoZ6i3wfHQljvusTELL+mIWWy1UzDCiK9wB4kAZqTqlRL9flCL29AW0Z8o8Ro01iaQLUJfSuD4vIA1S31Z3qIn4Fql4QfnayfEqLXcLPORj9XyLVCbTmkPgaJAHVRRTYWr73VHXz7RO/b1vLyaeVj0H2lGoFf7Xw2oHQboQPU3B8s1YZdh9iCsBkXCPIzGmW/Gr31LLCWDxlPOJbPksDL7cCxYapx9+1aMtJTuVBtJur1+PLth9mZnCikiD1e2/TXc8D/ZYq9/+ayIa4nK9kQ8XY02NVXN7Fn9Dpfh0ezQGlSc3tCCodlKaM6SWCJLQLCeAc420quNWxGr7iij+hxRyKtm3IGbByR86D6i/2pmhzfGiFKsBu+MeurbTuYLXGOHWjV1vBCuLrOAOW73ylbSl8Kc7dKJ2t09B+Q2PepSCLplv/l/MevkAdALHPEt95JWP+Vxdpy50UNz9MMp3g+pE8oSthWUFFK8eYFxke63ZyQeKw/sXvMUk84VInLqmbrfPuzOCijs55pEddAylbXBr0QPeNznx+ZoPbpwUWH4KS11LcfrYtEXMzgAxCVsDXidTaYKl8bySH+2CNzt+/TLrXiGuJ6z74kgNM9bkZzn9wjhemMzZNFeNn4Tx/e7FEO+2fn6ot8c7dlRGDhJHbcdDD/4WztU9rXQO2Dp2l2U+fNHxusPgC3/+GWqfbyXNrO1cQSxO+xyJOzsoi4uBZ1sGpN0STCcERc+EEeIUndwkF2pqCRynh+aYYhdueEldfc5imrLsPlFMdE4tACbvupw9mgnSbHRCQbLs+tbD+cnGEtPIuTEFz5buVdG5PXhvdpT7NDCyVuHslrJ6vKc08oCR4kGw4gOcJaXQlaW4S4OuwaCwPeE+bLOH6WRv8HC6QdUQG4G3iA+sRcqq85mxt1q0fRAw1YmnkyvL6PTuaEqlkBEv/lZ0Ugkj/fuvPBmAQLxwTLiV3pQbcXK2W225cF7fgmOuirGyCraDhHYryeValmUNIzOBLvC6jMEi122EXGqndeQv5axY60YJo0OigQ0ggPuD/wb9E++gAOL/zCWlIuk05vIxfMSmcFbu955bonqiz5KlWXOfsGwHE44lgk4lPj6b/b1jCs7DPdWncCvNKG7AP4WOxfIKggYCtX+Y8aY+XCNFCTMvabZsEPNgvUViaqfELPztthhMZHo0uOEHv7X0bcEeqN5TV6PYws5TxQC34Wf99Qhj6gERucdD/685dJf/+gHZ0lLHKyj57FHYtTG7RDlx76kW735mu/CkW7OgioawRropRuDBHr3zxaOkQc8Lw2lJQoIq8t27AmkeHFgzkTSiQ2daoQk9JJr/wyDWGsyWwphjM6WNSYT5wMXp6YS95qljRBn5dA2oY2fBJgcOWUePbKm7Gz8Y/reqn6PUQWG0XS7ngzRv6arkBD7wnBlEzNAUgjJAE7ZR+xKNPXJII0RGFRR3Y45Dgh6FBCLFPSufZO8wVXHIkhNJfwrdUfns4tXmvxOyxM8bq4sE4DDI2tda6jimrYdKA3vFeZC8m8PM2za4Q9+TA/Iin1AuieY5WVtJR1ACslZW2blZsp4ikdtOSt8y+vI/mbnfGrmOhTt/3jCqwgaWhG5qurMCCiRQv6fxEj085oWZ0kFM3Zs2+DtOoWnmcvP+yzSAVUazyne7Oh4qRbxPTY17dplPfGPquSifyPlu2lWaKiT9O5GNdv1TPSSqsZ+hSEFazuk3JqW1PziyhooOO04HYcP5AHKpVM3NvVLz6sX/bMqUSAZcnkiLI/GefTgAzpe8dbrgU/p19fAsZtbabdlzeOdbMssE0zWNAh3IcDZoLROzEs9duLM+t8U15VDmI2M1HfEzI1a8nUG5QV9tIDCFdqOjL00jnBDN8B6GFlHTl3poPw0uB1TR46XO7C1ghg8qkrg+KJoHNSFVpvx4KnIRXeIHjuyWIgk+I+Fk1lOPeGInmkGrvpQjF++Bqbpqs63ywtDcPAP0ZT5y19pOhwwNcMG8/muwkEdWHcOHmFdIOoXJEJx0oViWcpSBjr1Hzf+2eK3cs9BlAcb3As3PkexqZjT5qdL5wp32LI69rUSjCvHkYiOpdoHzxvcKwesuBFL9Dp2/p/Lzx1ZJz98LOPvDR2c9y9aMzI7kn2bs2c+X6G8XI+pVOUABTWoPz+vtFl2kzjXIUIqpGKoRhZDC7xgrarccvh1zsX7UjpfXojs2G44NUA+AhlocCKImpDRJgI90OaAgmmcv9MgGpV41E5ndL4jNSdV5QITY9TKTpsF4L+Xgo0NYgQ1cgPuD/Qf/B17NcBsSVkun7hNOdltQc1bp+AUztO56jvXCWLreGrel2Kgzl9SjC6BKy0OU35lBwwc+LnrMH4myF5Sw1I+Y947xkJFXl8hnIVoX598oBKPZ7unQ9RyXuQMr4vdXU0gDoKFoySmfyPoz+nJRjxSY3DWubKMoy/ghecOd7RopNPGeL+KrQs+tux1JtTXWnzZw5Ui3p5zYRICjSkjvSHuBEAl+acAkvpY8RONva08F1ukrG7fUwg3Tk405HXWLpzDdS273jTnB76ktmBckuw4j+ALnVwDGFSASqPhSCYV5ioLRHlwLsif4lW2LA2+n/X5SM4EYC4dP/k3W7DWBD5gWl+BuqfmkvVAo9WdfsvgT98n+3AuqxlVj07alURT9NAbgsXzxeVaPXxXA7c/4AMLmeXG2TV7TrJfhe6KqO0RvU9RtXlktgTfbaTEK5bKcaVHmXosnh7r/OWvEp97eCo8FpfMzlUOqWZGqGDoGWeQBY+ojRg9nkcSvQE/2ZKbX8yIaHothiCNd3Bi7gFyedehC3C4fE9adnX7nzS1Etk381FTpF+1Vz59Z/BxIzVv3Q2FPY9woYkg/ccMNCU0PzONtLEUheVNL466C7dfMIf8JPfiE2joI0yCmxS0RpO16/5kkZi0gdvjgFFr6mNEMNcX6rt8niWbJZfBzJx9qiTJH+BftgBfiq2A8Io+6IrB7wZ+0kGxofku1ctPU163fIYhaq4WjTneFrbUfUkwF42r/RRmjxKCJyFriUwQwJxhSMh1YWKA8WfSWRMg1UEZC/c7KQ2lhbiEGG0enGoSDWD7/3pbmqvklu7CE69ekw1hEpHjI8UahyOQjbAbv3NIA3H+kccWXCsRlfUpe22q5/XuRHVihtCGPrELDEfFNCmy7vLUawbwHac7ZQedUuyw4M0G+WqtH+8H2nXlV2zIb3WwNjOaXB4lDRB1jfgZDxvpBUMqp1UnuhZlRwu71Pxf8Z/RRBsYHTueCXrUsdUUJG1pCzGuiWo5qp6cl70a3nFo2FiI5FsE/6cda1yptxFG4zee2v4nAHNb5J79Z2z1lnLuZ6j9aWh7lUFKgtlb+bwZBcZz+Fc4z36RakvgJTgbVX9PZM0ouYdu9teJ/CTIpBz9bJ6NDXYENmID7g/4H/AheztffDNFZqSFuE6BjxlG5WHiFYU+ScxbI+R9OfPpuTSXS6CF+e0Ruyi4CYd3jrQq67SPTomdB8gHfSp8brhMPbX94CuUybFNJ8MsiMPscSWTDElf3fgWwAzUqpHnoTEdlj5awPuAVHNRSb1X1p2lLpZzeMIg4DyeIZJU3Tgi/hEAfOo8LtHC/qVMpSIeeoXqgpFXsi9RVkXBH82hNgC1kwKZgGgYaIwhFmavul13IvDVzlCwpK/Km2S9/kcUhahX2EELcTPjYLogJWx+pbHABc0hCa0jxeoKVneOQHOW3YLneglag135gU/3SVo8HU/giLZ8PZIrvUNU7dqsmJL1SmVkAGnOYN++57Okw6NGau16jSOf2g07D6J9Qn9MT7d+flGBPu5Liv7iGlUtbj8xcwcro1mq0zYaiiNDmBn5A+5GZG12uShiNUK7er6Hje1D9XP6x7XZ75tz02tS1CgPZ6PYDOuyjV58H1RoLZvUpJR1VCo2CUGhf7auD7FFhRBECPfcrd/6i5Va+qq4P7KbMCL+o28o0shoQAkARIVxXbSJwnt+g0NLJITqhao8xihPhLi7QhCm4PYQv2WyjPrkx2OICUOYkxEtTcTuTKJVGNUuDJRm1aK3/5L84+oTotFP2n0cK4MiZsZumMWcTp7Iw1bjHxdQe6v5yQj7JzuU0qghkXXBMoTh1TweDlb8MYiByKiKzCxZBAsL3yyMj8Q3yX8IWgsrwgv+bYKlg3HpauG4EgJC9qVr0LRRIKafApOrWRGC2YXUnuHuuQ6DfCl5InYE7l7vAoW4AdFOwod6R6arNAl2FIjNvINA7dvJES6W0ucsydd6k06Xjpz3QmXiSOm6lwbqG2TFC9cCNr1DgUNczhzGRw93cqALQ+ojyXJO6nQ6ZwnfJcJtgi1qy4iCafijHPREtyiCnM8CXzmFIhZ4YFNQnZ8YvAuMiBCaRWFPjXvO6nvgdHSuvSRqyVNyzb1UYqZMR4D0lBvIJ3h/2CqmkzlRymGBE5ox984Ker570n+0QIuf9KWuuJiZeAwLTXAp4HPpOC6jiz0mjfyCAvTSMYbqZy8h4YjsahAf0b62iSiJTGFFP87YLf+1GH40vs9PVbk0bByxFCMGHvf0jSY1zDKNDp4EN1ID7g/0I/BGHkey1MGFiXn1jNLQBUFq8w+MGSyV58qcosjlRvGkF4YxzYyYk1PI6A657smmtv1A+vVLzxrRYxjPr/5lLenYsZ1g7Fm5Q+jHQOVV8M3c2o2MMmkbAPYdgKpRivCnHG4fl9WERFTBLMpIfgzGvDAn2PIckDpjf3m28klP2k++XhoOLs3q8GGgna87yfqWLj9VUN3wMR+dCL/l6euhFV2sXbWJBC1zqNeAhVA8vMVpUd29QbaTmx7bopToQ0h0Rp/gzW8MkabA996MyA1H334+ESEiL261IV+6A8H7SMEQ816pP/POAwsfvdY9vmd3Pa0Mku4T8eU6epFYOX97zdstOzu/A+Qk0qa4mw0UQel4NKsC/kxfVj9eCZYTezKOHevRLV6KGr3DNOseq1I8XepXDLttq7qPVFNV/noHpFlb5UDfDGXNCwiSeoEmnx1gjpc9bycYlB0muaGJEL/UjwLwN4yexrxFXPEZwE5YEKBVTpD7DuGHb63owe5L/AAeshywlgWas7vpVX5uZrk6y+3Usti7dFdxBLMh67o8f4iF30lkew65hyaRLTBNR+0sWSDzEJrodSQv4gJpv62rEIhMu2wFllQlOBnEZcGFWTz4qbx526MvgWyD99r9WEdEc2CtkpfO6SxPV2Id+FRm52ySLqB8VsY6kFFACtBQBWeXkDgFON811mKfKscNHfCai/Ap/AloYlsXBZz076mRL9xU4c4acWjhl9PXXIx38FeyFR0GmzKQj3apT9Vra1/jxMAa7krdYI0cnVgJ70jGqTQQu1MbloALQ0wC75WP0o1si2JksrH5sG4BmU9r1bv4MwsbMoXc7ORHZNXSpvA2P921r4RIlfyS+JVaTH3rHIcIaTtHqdtZB5OGYd7aTq6sMGLx5ou6q/9DnyCBcFCJLgkY49iM5ztNOa4jG+qBx/7+4wo4z3Jcaoq+nEqaYtlYwOvAYAAr7gu6A1LgFlAITjJLIZNeN1+LqWQpBZUXYYCgHTxkbTYdv47t413QyADCsqXVgu2YutNlYs1A9gDYy9aFBX5Km5jD7jqYBCBU/ww1BjqU13Ww2CGqKo7rA0i0LWg/vsblkfa49kRoGt4fWlFqeKcA/PrtaTlWeXPq1JOnjm4gSZIrD+62Gf1oPlamMP37QvjY6x55LeRHvwFXsf8jpKGF6yzKUZ53f+byKItwYD58LfmJqk13rbBPh87XyjB+YaQebzGGwmN1J4d7ho0PGgQ4QgPsDUBRkZxzCBFtYHTjda5xJyIoEjXRIyNN+/cYXRjL8gLWEu80uhOidpsg2FTJijPn6Il60H3AV960DAH1OpeKat7xdEEf4wpWAHdW/FDVCZAszgBmDT9fWcrfn4aBQWNEIuZsQswNYa5aPPwDw7Um1H4sidu8awNN1rBrRpFNMxU9Ui2A+W0q4q84Mbf7Aq/aoKAyrszS4DQ/Lfr3O/zhji7LyeapzVjOaGcBV8EmxEkRzDBSLs+c4n2D+rj8BF05WBJsnygvXMFxt76pUe7062PaK5Af6Zzq5k9HSQ1sK+PBphoni8+o0DAvN9dSzqeVwE6o41/sJx5JvyHOC1yC+a3Z8oLbRvlYttFWk9AX4UHJoKwAdANEUR5jE3TzHkxNvfTKGXzlwAMbsjHZr+sS0/3Cqn0I7c3Es3/lw3LKiXUWHesrNcbdcMHvZ5yghZpzwVsQMGB0+DyAKrC8vU5PL/tIoRBe4/KGqo9SSmN+7bI+82tkJdIV6P2sh02Qi69drHug4bOOd2++2dHkmcvSucmLNgsR6o1pM/zoF+tGX5ziCAoUugl/46F6KCd9aiIstJp3f+6bOYiiZzrlGx9pjBlWMifARO3gcD8m+pnpD2bsmqhjtgBRAVc826RKO2eu730yvgIx5y8G8xT5sj+BVAmDlCDTVxHLVfN1L8V3Uh0BUGzkDuqbC+iI0F6alxiBaemDVibsws8l+PT/EiXsDUTKj/l+oiXS7sPSUZC5jlUGN9fB1t7ObcCGvTeGhMNYCetZust3oJGrHsZtvHexkYn+V/cB0cIV4sNgU2O5fg1CyoexVkDHm9UMxlkw5D10lYZPSY2Y/p4/y3Y+L8bF5olr0ra4H7r0ccBwFBxHyUS6fGqemje5g/HqpximYmVLwnNSSE2lxH1plFXWkVz6vNpJK5/WjFOD501hNVwN/B0T8TqLwIwviczQw2bfLlW7BSFkaEeKQqsfTZUJCzH3GdzL7DjlHCFTzU39i0/DxBvoedajLuK9RNxG094MhoLJNfxj0E079+u+W73cqDw8XnXfif2XtS9/pKzY01TQJTtQRlgEpzDqR3+ILMgoO4MUVHR4afxxnDGRJyTGvQGtViDwbhU7S6AVVd75smGTqn776qPq0gh5KHaa7SgTzI616h+em5XVZYPhzfMNqfoafNmbriD+2zZJfFXA+XaaMNd1Xcil7fTaWtZ5kOn+jaDeAPC35jrAmEgkJRQWNNN1wrYwUC24T7nN0195m7eXV65vgWR9TeRH3fnLZgqoKuN0Vo0PGgQ5MgPsDxqnfCJKQfBMvEz8PoJtveo4lQOYBRjLWa2+VaOxDF7AoE8jb5ztY8sXNAZlkd6yto6JzQAk4q7lHFbxUTM2qFVkkUrhFp3isMnyHFjOoFkgN9PnZ8IKvaYuB+N8kcAfeuuveG5e+VhpKpWakbRXvaHbdr30k+qEm9GWZSYYa4Ubujop4Pz1JfU0btQfjmt9XCxEykLWGAVQgblrW35WpF4hOLJ4JBAwfsckXuLztAmmzRjzBbE1wzy2hZeYd/s1FaoijVvLGmXo0PCwT1h2ZJKiFsYe1XOM9Oj232BQGGbbizz1Afk4KuJA7Mfa6NacKBKScAfhRJcqjZbQENkS82hrDykKBgmZoIbV1aXBxuhhA7s0JrmxP4tBp+gz9KKTFO73M+SYhLNkRbr0ZOGoWZxI77foo0XoFIjnYEhBCSRxe1O28nOsUoBGpVdSA0NzzOES/f447IVeAN5XlmHb6zcg9KxXPu/fojOGd8XYw8/QZRKE1xfhvid9cjHtD7Z7uwJwdHP9IJpTEz7VuWukaxs5kxyMboT+KwmWwsImCbWFcMcJu2tXn6dYe8Ntg2yhHHdA2p81oti9pTTQ3anKCG/gP3tLyOeobZL8W+fYUwghOwL7LY6hA9WSt331OlAhOVjY8NnFtsBntS1X32haUly7lQIcRlIOI0idrXrL4qA852IKe5IafBO7o9DtIu0WYcrLtWSkcGtoRPBda3qSkvQsv6Hv9ge/dR4y97tyZ3bnd4LR3fs/ekTSnuFLcIDyoQyyr2d1nNc4dOgKdvmpAezOguwJogup1+vfsqSadMUzBlg7opTlKYtUwn4vCuG0WlyxWwXkjxQKz4cCRo+88FvI75U3tCtJGqpHZtiVHEcwlvV4/2dV84vyb4wGDBPFxoYmF3Lj8jIFdPiYoGlwa9xPJ5hC6hite0vpO5oA5evS/yD1A+8abadyv19lYIp+n2O11UXyPJf1rfwfmu0BnvNQ6z2f+H3KgIL0eqJnSI0MC6XgP2Xp34K0sc7F1q1F9jcu34E/5VKDEDEwKXuw0+Ps5JjFjoUkziy7oG/7A2WePXDl+w0V4RBRLpxXhMh5nqGfPk+UlefrW4vCjZ7cQfVwl5lnOlI5BWaaOotVgsba58/9cVXcMh0YDQ72cthbqamKsaKC5WM1aPtcm1DR3Ih2PAitlXy8iFdDzB19XIumJ/9RYPXpDT6EtLe39lQC7V6JEuq72zggVmqahuir0wKfU/wavhrxvi3JMnzDrJN2YVMxrq2+2tfwOvVKSISSLo0PGgQ6IgPsD8X0skKq12Iun4eRjloaFAtk1gjbLdXR3CA33+dEDSgHDKUUEl5XtT3DkRaEWSCURKc9sNxeer6ByJUcZq7x7rMxypqaz7cbQyhyAtqrs/+j+EMsjX53EPfy0DsBQn/9Lnkz66CrvlNQGg3RkxbgYba/9znpj+JhWUdtt2mjk5HMP8wLqamLa1M40/DQvOifM1Jdl3RDOE+tTQSDvkk5bS2hsDCRrss7ykD2flYDRVTCC+eeTaRQ8FQcapqOPnAaqdU88r0mrlx70kuqVP8noMvR6d1jA9AWvNCMNVHuKfx9A80/UzF3ZZb0eU7Ar5I4SnEZvPDqRe1SOrfhgV7NJC0KWRr4oOV8XSDBHNkwDPUdTzNFjekMgI1JGoVJQ9Qumvd7Ot5DtSuvRtXVyqne7PzZhKL+7ri6Qvlg3KxTfhIfyPUneMrInhklD5+FcgV20EsYEOld9mgripgLopsDl4AhjQpHaDWuIK9h08WG1hhltvSkQwBwDtOM9C+Ro5KCmD2J8IjUX+IJpsc4XFcFS9tpu7jpVYSJNPhQK8HkKH7ahLH5iEjCDSvuupmzKD6ctie9GC1TX1Xp9VWilTfLzJRrC6FBuyVrna2LMpuLE+gaveCTVq78PPU/cPXQ/xRyim4uRuO0C40YCoQQPcJJAKamqpnd/UFlTJvJ5Nol/7dhwG1/1CTN87B5OqSs46K6I1rb73r5GbpIiR7BJhtwhgEYMBJDzyQ5OgD4ZUVUEwFBri/h7Io2aHku6uoKSovnv0J3jNOQYAA9IYUwIXBdtD/ay4mzNltK49NvvdqWIuEv7CLcj5xVQ3CmUQQK6NdLOSqcj2C1XoPW/rJ/mByIUivIieJlkYEi2KCzX4nCxdyDltlhQYW65BDgFIo+sH+5UiBA6okYjt4m+6IRwKbMUJf06OQsv+JVb9Kkqwed4cQdkvpaBMjR1JXAqzFVW+kIEj5tC3GHvPDd5s/UIFEeRSy4ywyucAi4HSJgLDRLrA4dEOqwbpfyTvqPKsIGpsNFHWa6KfACxxnmNwf94MLVN717ZaM4xed9iQZ+q3BRxHrM/gon7ihVuP3jNMfmHjjaM0aAgFaU/IVQfGfR7ObPmMeqNKIPb8TUxgEJlGqzz6o5p1hgo9SFfPpBTvu9xdpoOz+cWsSUEyvqF83FTfYhNnmaeoek/l39ND4qyCEtLXNEYFjZTy7JQS4JMpllywWRJmrUrzglliC7jzXZ4olVbM9gasr8WbQFl3MNLq7uLrslxrBZok/LbXtWJiiRHbaSJo0POgQ7EgPuD/BH9E/Fgx59P18DGyzn5qm9Rz72ZbnM6KBvgJJeaKc5CQJDjLqJXg1oJUBqiivpxk0rcGrGYnT+CMEMJDqKtpDDFtCxppYU1sdhtw5Bu8InWwuzucI1Z+f/LYKZcBa9AuRL4tW2qqYNAC8WK0HytQXUil9IYRbKkFUQ8ARVZzJJ5tvVz/PIVbZ9n1ZBRYsV9LNndEhk0eVeRcsApIk1OBmmO6sWTy7QqQ3K0UseFsA0O3qnCF3CUXTLH8rLwMlMpOwfFXJnCXAl9ca2gTTT/j4R7SjOHKjLTdZTngEQbW3IsYpqvCVuBBWeguhq0TZTTgrkMjSC2jJPPcK2nRtWJlNMWlc868izsqjHFmFyaWUX1PwkPAFCOzpUAGstdUTNQcQhLLdi9XFeEOdsnNFcTxUu223y7oV+HFEmH0ZqWcXCNzISJcoZRaZXKryBoIXRURYsBZHCSzWK+KtvtAbW4ZwrC8tIm8xUw1dj6pOpiBKm9SN6tA0R2H/nEe/mhveaK5CgNumeTbSj8BfZ8AmdRP9Tf2tf0x/lXBLJ816CsOmPAzXrFCzPLAdEn9oTV8DAP1A67ueVpVcf5vEmAzqTBYD589JPvDEtP2QEsLVd3sbComc6BZoM+Y/sZt7SMNwPuq6kedO+8MCwltBG67c3Rpx7zJFo6XAZGpA6Ov3XN+pBf5X6tGWl9tIs8FKWTrz6pr+jjP0DJSXrnq0NfjuPbCAVFCFTZiokRBpAQL/IS+WPVx9ISd1grggAibBz00wJWqNZIZWKdC9TEQpQ+vnZg3nNSaQq2hpkARVnF+AH9VOb2/M7zYLo9z38ijnA8Gvh3glbe8bRGGccVF+U9WPpoRbS1WFIS+aNm1khPiGDyjWHLn49/tALcPb8fBTF8nqxahbhdzCWS47rMBRPicq/TgrVZCH552XxCruV1CR1c9C2oo0HSImjRIcj8FSBPNVesAwzoZsviWMo9Z2pTAKscwXrv6hrRyEdBYOTCRtqImmI2IKcAczvHmPlWq+sKTp6g5sSjri8QUIDnI1wCc0ONu2D9S8RuQNoTcMuBu5KLETaM20UpWNNRd/XKwXDBpM8Uquv3NgkAMULFvhxtEs1i0iAaRcYpKIEejoyYsB+lFv/RJjky1iHUoCrXpE1EX+masTv4090TF6dubo6G7ebWeLlVyArfFO5IcJLK5XLJ3+j14jHFfFdYP+VJrcn7JhBwvfdjsIjBx9KEVRtnb9kgneaTyJEe6sfKKaP3ttG22c2MF65bQMe1fxKemHPdasp9KbtzW6+aBIejQ8aBDwCA+4P8EPwR8hlTyur9XRo/HqoJozmAcHU/4Wu/VFJo1+3cJ5pUAcvJn8kHP5ojyEUFSyGgdrA0895NiRBusfr4jPkj1r6YHCHFT7U1BKxLbU51w8pUYYIDO6O3OykOlc5skegcH3SftjjrOmbLNu+DbS5Gm3KvKU5bcOMG5rcZ7XbLr7SqdczI06Ve2/zrxoP0IoIX6fQFKzez6MLwtOulOhTT2ldJPmJYOPWF+VZSPwCIg+iriD+8Q+MuZHvYyvHT+PNWqxsMGsb14OLEcFnU0klo3y8f6CEvFc4rD9HNFCdif4L2eHUxrdD4JvUEauGqD4tbioIKvRd1oVbuTSz82vt19HucZrvCyhALam08td0DmmuYuH/AMCXwo6LedaePN868wBYdbpi5uDXtNwH377WN1dWaOZRDaRHhGjWnly+0jfI8xbrex1mCVWfjIMueAzB3RKxmneZLEahCJWW0gdyEYiTX+Sq11iiGFcezmfFo5Nfsd0biUXCn8klOEtQ/qGpc77zDAF8T+0/2ZeU34mY1E36jIYdGlazoXd/uLz4/htX9EZek3FjnOMDNgY+afkEPIqwlTUo/EDkXGGTqtuY2ofpYG1n01jd9PyPlUyeWlxU3WrWI3lOeTWjisxk7zk4nK8qQG9XPZhEwg3qj74ca+UlhJ2Zd5mnbwkFllwDIbWg6Jut4/snnlMFmcJLVpIYJwqZANQXWqw3s5oJT/fzlp3Y40chCNL6LtvgjAeulmLYmmDwKGmLioCQeteIDIF8HWSFiVNi4Euj0huDixjmaENQDO1RmnMiSamBT3CPSQ4NhBebWi31M0Rjda2pSrZVgLYt73NUJjTonbpOvsZSK8iFQJenRTaDl74Qa0cAZdHFQTVTCiGuCIH1RerSxDCyAb+Cr8N6QGynyJRbGorYrrUgVOoEcRqrMe7rLSa9yWpyuNvDTn5Vd6gay3GWgY52dZ7ZGvp0tPl9+kwhRpokVNJ9BwBE3u4VvRL1HV8cg+BSKbp0X4ELOc0YA78EjRXaJpL1shxbmbNfQFl8htDeuHZgOortbSUrMrxSca1tM4tztjoWATUoFcRVWEvN3N/uvQ7S1IIgmBNPSRgq8MXCCCe61YiRWsnWiUlzrqeHPUXPUXXZutk28sRX1ryxuxk5e+cVYPAsFQWzIhzRrsVarI/p8vj2QcUByJ0U3TgNHdb1eLBz0UKVelL478DT8Pmi2Uj+RQwQ03+LWfbpRAHQG1cnOd02LwtdyKxzEGtSlLL+m5Mj0zjNqiBUT6MX9tIOjQ8aBDzyA+wPxbpRXhxjTP2ErDjWiTBdX394Q+Qn/8iY7m9Hl9bCMiLGNGFBmQND3rmIR39+ibsGQ4tzG7Z3BC/j587+5s0P0a0Ddf7esS/sWdw9fF/C0EVFVaclDsYBt32dtD0EJOfIVFVLOtuzk6TT5L4yORdo+Ryecd9ju9Y4glNJk+WcgBcSwQ/gnb7nBeMEOFib/eUS20H9e8W6gJVj1XwcaeopzI+MLWtmrOgYT8NzTRQn3lhXVJ++pgV6Cq4LjM9XuOKdJRt368Ld/aHFQhGzMokCYpW95f7PAdOLK1EzOxKBYjy6TZOGzlQFNy9qgW++RKglFxCwvyvxeJaDqrQ378a4vcZN/BxntPNdtsLItv/n5aWj/Pcw5WHFJT4PZBZ/pOnqUyr8WicWdFB9TgcOglZt712l3FrlUwXcljgbmr3yEi/IkoWd2Afw7SdqH6o6dPgX+XajABYmmutRLN3gpjsQMFHniEhH0kQJjsPA3hbMkRiL+k84LsTWhUoFDeE+sXy8YdAVDxgczdj13pBP20KEqJbPkqfsPzSRh5IdtQZ7Q8Fsyh7OLGLay/4oh4Lq1iF8WOPftiNXU33292eBj9Nt7TOKWZdnsHRaR9hIGASx9d4ASwAHqb9rNnjq3T+Xb+YpBSDtacAB8MzJy2J521iGctiexsh6mOWSin9HNo1LFuo5eZ4dKJE+BqsRFXc/HJQb7VTdddM8y3f0x4szo13VPDH8HspdGTLkcIqMzp9gnufsGyMWsks9yWelpLlKtlWM08yfCPwl8iaADDnbxGHax5/rxf+R12nGbQW0CZ9F8bueMx9aoYvtcjka2QZyG7tGnCpG8+e5F0VjMhkuc9wSJ8judTyg6F+O1BIbw98CLge55vB/hEyh28o0pQn42o/kBC20f6SHcdqcSrRKnhfwSuwTuMcJ3yMkDYsC/ObQvtyd+h2g1ISnR+AOzYjvG3r4yUKEBEEaFdsz+EcYw0JzrRhO0CmD3PtyZ8uDagJRa70DuVrPOo1CvKeGhXj61e0/KreVvTbKQuAl4b5V/MHb0YWOCoszfMaBLtb3UtpGoYbGq579f5U48HwLckiF6ylCVlYs5KT0UKWQnor55zdTmLEUBaotBOBhVa9we44nMr+ZjHXQlzcZpOLgLNEr4jt4I3glmOaNCkI0jGAKmD3s1/N6w/Z5Abwtk0xqaR+qnJJ3j3CWiybZ4BOFWrYlYg7gABZilcU0fko/6C6fopaxgBGW2Upyip9CjJVATT+gKbhaSyatlwj1RK5wd1ZhINIujQ8aBD3iA+wPyPB1A1faJkxmcENAquPAdoCPkVPnFWk2e3BWVX/7BqVh1Ur7WWtGyC+kS5i/vaudL8+ZPyciGz2SbINOiIxj4GQK1FN+OcY3XLkVpObK/KmtnwIKBDMhKCRdDuh9zVtpgpGs+EqGDj+Ja32zEgP7ai93q6uCJ94kMpjeXnmWU9I74TTfZTFf65fAS5DKZxRvSFG/xcZLqGAwe/eF0QTrJV/vkm2JJQxfZV/2OpNZY6/O7cln3S9VETP28is7fY5Lziz2usoNbp2zmoOYx9Qoc20LrdgGUhiW2B71xoHZlm3YD8FjQrQr8NuZijA1OwNLGNoiLqDVLOigkoSnvXt3CANcVmBdPV6JSw6EPjiCVBYsLpSA4rtTBK4y5TU5/qem0U6eFZf5gMF2rwiJKIJRfGSi71A/Ju02z00lb5oBkhvIeK6hD2DtxlYvx/Y9eaDtuky3buo/MZMHeZjtxf6qfJiQBQjTpyp8NghdL3ptYcGeMgCSH7ja7H3C0pocdgT2AJkRxGYZpQsWhg6rjhgfjPW+904VG/SYjtQv4upd3y+fUxnqCTao6QJGTjzMp+wEunzWEg+10GNX4LLvd81rSHzTmOBnCKUiuNxxgL+3okR42CoY2vrlCf+wovDbN8s3OyQUz+qYmyPSF+a6DJC9IL4QUn9lqrJlr+Oq+ccq5JSogv3oRrDDyKWn/JePHklAQw/mimNJdMhKrglPGbxNSk2XqJ9EcbH3F/KwgEp6vkTNNCVLCOCXllmEPTNSUWvSGYyYpnsoVfjLaRtAxFYNruCHeojQMcLps/lUioFZD8+rZELmVriiWNlnMGO3ZMCRJfjY705UFBS5WYh7+0/SI8kFE9AYNIebBBc3jUI6eKnXNu1EhK71wyomhdFa5it8R5ksfVLzKW/1BB3XMWcEmwGxrqJ2V+bxE2QpGaK79l0i67iA+r7vfdcMU1RmX6apxMxEMBp9kMUyNBHFBS40/UbSMWYmfo6iQotYlX7VPgkwQzVROtqYdeG0gIjW5vXYFt3VCpUW2E0rYqEiLyOZtbu3qxLG2hSC2i0TwVT79vHThzzktgkXU6jFvsLq+lkPXlFKxm+LNw481TUI5Nz4R9SP6E2sDMqjxWFuEXCBpbH9ZPLXyHvMBBDP0PvMxSC1ko5Khs/iN2f1V1oUDoCKdPDNTnur5qtxGWIPuFyc4wa/60L3wL8BjKpVg6xYvATVHNIS0qZEYulpc6I66/cbF5b+Kf1uPQB7CxiZvr97MN5ub7kiY1t0tdnkMPkAc9IqjQ8aBD7SA+wPyIJp0YHp0uyoCVjwF2cNcz3aSuHdYFE4hv2h8Zb8BGexNQpBV648ItLgu6JnB4hLJFO0feWx4VZ+p+zTAtwX5ZG/dvGstnwEELRistR+WgLV+hIy8bbVZfI2JY+FkfuMZrAQkQNi8x/a0IqqheUJF87bGeVa85TxJDXM3rKNJzqEV/J7dquuFogcPXdQfz6gIQROgZ/IGoroSHIrkJ38gB19yvcrX00aCk87QSf3mBTkAPaSAxifwyn4r0JZNH4eXofCjhzpz4h8KfwBc7qBLkGIN7yozQxJSL5oJmdZUT/aI2DWuFYV/luD1qc4qVci1ZJPp1Sn0G9mAI7/wdjuezHO8UrJrkV7R8D7bgBomGO7on849HjEBOBfuQYo0NVz62JsYzjiVAh8l1ZWziyrIVWgAx8BS+Q8KJp9mIe+0hfFvvy7ljvyarjAfWllcNO3fe3tjyZpqcwm2LmrJy0QCZV8RXYEYYaAo+8D4Ppc+YkTZjhaJhtzho8tWZAKHVLj3aa62w1PdA5m9eOP8q5jmukXiw44gQSnadasEEQ5NTys1+DZe9yWa17/l4MgbxZCDbiegU0aQAus0t+0EK5flVG6NxOg3yedZmTrYIQaho203e6670o5IncMs5gz+FO6+nu7kiYxCFH+MwhocaLH2uABhayAwhwZOCIltmaPwm7iIPVrVk5wKQzmH5TKAipAlK5GLqGx2GhN4V/5hQqzm9dVC7gz69oVXTUgfthdIG5UTx58HC8iT6GdOAiogDZbWl7iVIGQ+UNLjUQNSSviK4mGV13NZTYTtAGkwL3sNKDA8Y0VWVnnCyVnbgsrV4ICRgnwXYTcrdMqR7rkMPUSP8ouwZQ+AWL9g9XvrrAYmhE407+4e6so3FTJxZK+wUIYdkjGMvDHmjQhnMVF/bIXxLqTrV64y2xdEzZ2BmqXfLO/FTjjhNwjOZTU88dUX6ofaaRlsf39u3tT3kuiCTvfJOQrwTGvVAgvGHWF+SPwWYRkiogB+ODVpQ421C025wRJX5968SzA8VT7gty3PFcDwMeGoToIoTZqtOFpAXM3IcNdAnMME5CkqQnpNcpKwZQoelxfJrIRTlOkmJ3empe4ifyUo8Sa1pyqKRGRTRy4FCdq3EnJeaOQJPsvAu+tYKGHe1uchjfm9aJxyfXKMAcLKv2JyIVv6dGY++TrHoS/uEMCWdJdtKdf2Oz4oXMXvTkUxNb1wYPD8I72F0BZYnkFcG8Xq598vtT0UX8aPFXSao2JWQNbUhXJoWB74k3I11IyjQ8aBD/CA+wNQYUscIsawtQLfWrqlztjCT5J+zvXwP9ub9NErX3lZiPhiCr4aKDLTWB7F2HlvepfM9SXlw2tM9optPEasEaC/yaWZuVyFt5w4O133q5PokVlD2+3AxBR23b7aNlb3njVlhhERHKiPf5gBk/ywuUm78DRu1tDM8wtCyb22jJz7lFrSdrtA0PAOORYGUQEEiPTatzivJFq2D2Tw9W2uFT9F4m6ABCPORT770qGzCbrvAcVdeowd1GACTyBr54gPxnhX12EcM+9Hax+iCra37sTSj0q0mu+vPFRzzFL/WUd6BOzhk1SkYSQn1ygCaL3UIboXlO5/vjGRJjdlviF3JeqRIbSK8tlhllnNDieH2ve1s7aVR2BLn4K2u5NFMTHqNuBNbr4T/PJ+5ryhgEfDQTsS57JLo9+7HG24yA5SonlDwlrmYqZjebCKovbN9z4oi4SoVQRzwpXhDsnddP7bJbqWKzClRnv7fkS0zc3So607Q2CvVdIf9ndxvdyCZ2yaVnGkD2mSIXgR86MhFiFlwCs6t/OFlcUTAbn8VQZ0ja0jNpvelOLum8jpm5kVwKoXHLIs7HVMH7KfANL57P9qKIhi/V2G4Yr/nQPalcw0PHO9MmDmlBxMCjA2Otrlt9pCSJgcZkRLNgIljkDDNQTlkotN9mys72prlFKVbsA5zNg/Fyk76W1DajaJtqGAyrA5vCPpdJjZHaYypNLMK6FahU2ACUxp7GPrZEE92PIkXZiLCK78dfBm6aLmT9yNG8QVZvbAqrdOHPCA6W0PA0AR9S7UmM0sRN5pT6KqAeIB0m9SJ202DTREDyr0snts2mCz7snEqdn9PSzGoGhIOKQ0H0SB8h1gv41xsTEUwTokRv0fS9TlIbT9/UcdVxIT4iuzLBUwRy+VR1qqhtguZ6GuGYoZ+bSMwu70iIO4U9INTvUaNaVtyWzF6LdM/lOSqSuXteaYDLlPgNxxILgwMGWFf6Z7YJZyPDFUUDffnrZPrnlG6GlZGWGIItQqwDnYb5VPpA9f+LOALiTWqiL9GPcItOHESAc5TV/ZR6pE3n3I6QtAeO/+vGYW19UgS8a9uVVNnCTRW9YJqaRi+Dc9CLFZqF4ZehrR6FXZyKin9ELF2HDQv+xXw96jP8R2kgO8R1kNBispJVmv+Vkz4vqkyywCUJR22vB7FGzz2sOUE1Uf1Dax6YGOwjXryWds1ylSx5CKevqdtVosuSX4RIEN6ZyyQsYR4g/e6NG5qy19AUuPrUSzdce4K7Noibb9W9jhrxrVtImjRQqBECyA+4P9QP8xf2dj23/4M8KJYZAwt46lmI6sRbQc4rxxOutod1bgvR8dV3tESFt+ETeYLnt7k9u9CrWFfD0nYkMbrqezdKXSbVGtASc4/bRGs2usPs2+dw30RCK7KIOyzj1onEB9chV4S6KEmQVtOkLPfv2VDNi59hK4j+MeeKmX3aQNM1JrVCXABN3L3UoxoM9qDqRf9QDr195YJlMM8+ONIArE/D0OLydiE+g8Zec3bfDZftTeUPfpZBy+UE1VDjsPv+nhzoga2DFSlfL+Pkqa6Rpo9TjWEskODFBN5gKC37lWAHX+BjUsbB3RfB9kP+ludSihXJp8H5NchZMeK0UFy2lGhWX5DO58F2W+XJCZlUE+VP1xom+R4mWihv61Uj4AxRJyo8ztGonBygQ9bvN7tbdhASRyDPP76onVze6ZOJiPHhDPqa+gW9Vr/gwkr0srca/7YCbVkBdlAP+TVc0Bmt/8QdrtjTyHrLnjRNxZfX9d3mj8Zvpz3XJ8AOOeTW8MYj3PrgBy0EkCTz+ydBN/psnUm/zUTPQ2Ar4iqINZTkcMiy4J0VNUrYRga6kKiXde0CRIE5CgXmV4/SfA5Kihngvx+5lY82uMsa0RzRW0MkU3OUS5uyisUOiLpj5LaQBPYPcLE5HjmZZPOFuNMXMtF47MVdEEAI4Rcl5zo6UzIcNIi99ywu5kdZFf1PIJDGhs6dose+HNaYxU2L6Q0wWE/I95ldjxsGlabRtlcNb0zmRNL+JfbASjSMn+OTcSIjW4hp8ZV/h/XkZ3IMFR1rwcNVRXccHQdNpP4jzzuGZHGgQp61cw2UP2Q6sfvvVyZadulZzmTo5x7035NsyabHnseqS73gTbCxX+vtcvQli258i0swOhKbuBjzI5zeO8pIOYUe7HfzuABVCFRztdN20hLpU/OC5jr2hE4mzSAPghbm2vVk+249mg+G3qzxv+8VsKC5xc5vgEpWpMiOVgVwAR8F4LA4b2Mimn1kr5+VBoOHg7QCdMpcDtmz7wlaQ3urN9omo+8Q0mL+F07aeOgGLPgZiZq+3thl2wF0lmwiM+EQhPFt2W4wWokexAt1VApiTFAuyD8JRmZx8+Z54qobpV3KYcs+W9hfacCBPHRWvCOSfyeUdotvHmChizBlfYaW7pR15IrrSGRWUjoq5avG8uJ0+EBTiHHIhxKnAVhFQK3e+HuT16+Q9j0PGmrA0wBgvLJsmtgaCwuiKzXH9sHimqw+cHZ0Lm9oQFtqtUxPeM1rlUyUZqcMHN4EWwm9dJgFIRvO5OLq8ldmKt0smXSCrmKmuITTzTCtAtrpJtFI1JylxFbuWmW3h1GIoXant0k/TGm82Tv7r+8GV2xtN+WBGxoMupAX+HMEy4sj16jB66rQO58k/j+DiGiQiLySha6KvwWD/xOP+kgmnCP0eyqR+pUW8RrFyYYwUSNjre4Sgf10G2QhkU0eAEIHRebLGgulhEWKfBx/QBLYBNAAjwB2mn0qiAR1/pOAbGK8/QfLaSUx29a+QPQt54KtKoSI9HafEZ2POUfrMlmxsqv6j6ydezWSv/UuO/z6H4fEiVQPBo8vMPAOCwyRfAWwLZfUhj3iS5N8g8leO2zAfuxsVMe2FXmZvorLjon058Y7RedKdAnVwzL67eTS1RwIbvE2VsU6TpT6YyrZzyAWCAcsYF7Wyr7HQ+wWCciZdnwS62JNy+8R7k545EPoCjQ8aBEGiA+wOfMQnPq1z3RktJdSrcSkuo14agBc9jUgyQE5KuACI7xXU35CcZ2Ns2QKCufyBQS9WrpEKFlUCTD3UejiAqK84CYpJtkfnhEB9TI2RGVh4lrR9is7eYS6rlLCG9ncWBTMFlIGlkVqM9lkCZS8PHQkJQgydKK8NqzqHIginmpoC+pVtdyYPwHIMT2uqe+XaRYExcI4fSO/9/DgxPu/QFrIh51ebLpScoYVpvuLaGB3yM1ROEkZRbfHrkTHoU5Ho7n+5gIBFcnlCYqSYM388KZlMqZ7CA3+GRbe8I9mDD242MKw0Jmj2OkRvY3A0zcaIVzoUQ3nCmAmXzXfNASTHDNqutYxUl6dda8SHNJTkFt50ER3aefjA2mmRk6sKbb0vm8TZX4WV6RnELmWJVOMeSkc+b60WDjXpBY+xjCKk9RIhqXnZpVIipdM4Gd3fkII/AZHeFZfBBv/xFxJEVj3VCsOS+7QjPINE2NGN1Dk8N8VxEf5TIA7d9CM42CA1MpONKrq+0obL7YkEAbDYAOWTQPT4ctQeiCOQUaQJuQccg4ESqGfMMTWT/ugXZ+26wkkJkO3+cjGUbr3Yk/2DGVkq0PBmjJ7QVsnH4y/ZNnIqICenw6KCDZJqzcj3qsQcMoTwY5tgDPWc+gN9xhfO82H8nxVLswJircdoWLTjncehpPC867Kw2fnAwgrp8Al6AdipbAeRU2TWOxlUs4VcIaXhb2W3iPUQlSJYxUiMgLvxAZNoRNrZtntNcfSD2Qi+GRZ8OmKmWCDmRut5JVzG4TW243jabGj6c4DeArk8s0PnJjEpnccXR2CC4A8G/tHLtPaxbs7PcMWtrVWs0rwFsSdsJxJ8Vdlt+wFQaay7bqE1+Fm0snUx/rgkuhvJKPfHkXxE8IMg2h64KgFXf1UZ43565pHRpGrVC6N7K6u8u5BA46NUx3OantBtxSMo/2DFRgsqwUFOxizyfpNHj6f2ygG7NFgrrr1/4XnOrmRdiLmV6wtZ9AJzD/h8Ux3s3EVO8+eRVWrd4bvgeBqHEL4H1wMyFXypPgBQGNJ1N08tVlsg9IDghvszLX/cREuBw9T8jnjwqylkUSfstlqiJHlcuhqj7E60K0hDXDonModTWrK1U/r47soGNP34+Omol2R+kr/K+bIvJlgBThxo/E5iDa5HkbuLa+l/TRce8r04GEEgz0fpQiSN77b2i85vCaAx+q/dEpvWieKeaJhrvIgl6hyrs/pPkb8//sDrR3zreCdYlh6wdMuX9CpLhE9UaLLxS4XMeFvCjQ8aBEKSA+wPeuX+iGDQ8ohQUPL2crNnyL4cSCg/5UQzDcrsTgumBZz6TgjhX1qlN9Gvwsc1xmBpzCcS8WHFECzZ3iY6diq0VGSrvZr4x4ydKWpf1+dRHmSZURpXZSeSQxxXLy9nTzBicoMwTG5s9empxauAhDWhsvNGwzdQPWG/sdIJS/rA2MRMK4/BxcB2oeZwO0XPfTEHNMkeOplryz9RFwTuvMB0YyRT8grFeX4qCVtF6XlVE49+CQ/V1tuTM8omFqkpO5eLgatECon/Up60TRf6Y6NOfL/o0wJPPCcRcq8LxX7kERuZqMTwkS/IcsJKpFnO4j2gB1JeQFOC8F9uagSdkjHuPYk6Vm/namzcv4P8pDEqDTnGdjcgS5QCHRnEADSyhL9N93J7UNoGr7MOkYuMZV4J3rxFkDFWynZP0/xtZAb4s+t65kBEtmSgT/ddUa/DIsx31Q8dmeVSnPwGPLv4oE790Dekt4ep9hpkYnLvHXfYbKSupoImh72suxbRpCHcpvtOQZu+kgsBVTeXMI5ytoyD/q/jhiq7uo+op+/TDl9VEMx5HErSboWCzZT0Yc7Zp7RTK4yJy4yelwbb91TSdk13BxD5GqHh2oPh1ooI2uiNQwex+rOcNcAEGpM78m3yoXDTMkO6MtOVj/FOFJqpFoPcsJwInjAlYv6Jj6GnKopuA0l0XOC6IZ+nQm0qJDsGbp9wcuQ6ZKbdtOxHns17J48Fv6LsO4V+/HY2gm0dFLrsMH/oK/qBcgIGpAq4rGia74QEgfO6KfENXqEXcNbMX+Nv3r++6vXCeeHOs4V0YTxaE6PUqPYNjKf8W5Y3im9RImhRPMHVeGdMb1j/CWRQcf9z23tB+5TlYg3Ur1OycaZu31WNI4/CkhyN8sE2QgcmFtT5JrjWZldjQGKFLaIzv+Nbnd33z43vF1rpFF9DrypMJdZkcqLo6LQDwCAn5ZPeLmChPWqKrLfRIm9fEwuvHDThnaAOzo0mgqD6VCkHrFogSQPf9IrNWAuQXaNK8DtGYzDs2dBVsq9W6N+COXwz21HuB1hHwAPXSVECQKo8vYrjnV0NdM7ubcgGAiUsUJQ+FoD/6/h2VFZOmvKgMtHXn3CQv3MKbIkkijIaAmrKJxgqzQ+5+DxmIp3Dl42jHpbqEKVKgJQG59Msru9VWgw7Ju9/B8Pc5xAXljHCNNV6kCbRBpoMvZP8LpsWWAi848OCXnfjCF9JcfRq905kJAiSRZejJOAADT4yDY3rVpqMpQZpoCO/lWuEl/fVWRA1/NpyWpPOjQ8aBEOCA+wPfQ3MtyT5qWQtwYA8HvNZqdtlnjVnUWvoUp2kSGm3PrSxKUncHHoUddlE9DJsZQFSglaIwjNmonSUCuL3cvP3ql0qb/d7yL9RHCxt6g7kVKlswpt2AoppAc4AAu8gO6fZZ1FZCfACDthzjVMzQ1ywT5KSZf7wtE3wsOnnC0I+PY02/dnExK8t3iXkPUBFjCET6Bze2t9cjeLtpxMSM4GAbn0qh7bZzzzyU4QF2TysJ2Lr4dd9WQqaTrRi0rw9swUOgzmI1B6gPIBv2FKhuW9Tl36C8trEbSXfe6rk2XcRYVoqDldv6IjiQ32acqNMcDI5CjNA53lDLpY+6AqWU1NmBTKA2OWxFDB5BF27YOSV3UOs1FxhABoqhcNg5qUY+51jx7dMvklPuh1Tzl9mw5Al5fHSxCN0oTAyv88/CxT0M899IZNtgUTQq9Tw4ttRrpyNGPdSIHzKQmipNvoAUZOQHtr3bW+JqQzk8CSw4samOcoMfxDZEiq8X1miyQJPBfAMA7TccO3fJBzc8N4zHhRr+If0Ye8Dz+AAxA2xqLMS41mPxmkYOHspHoM/9/q00UiUX7Yuk2plJM8rDGwWb0fkBr1gaYq0xzbGxcgliwK2qIxu1bmLfwZZu3bri8hXr5BYf1erRStOG9rw91yIUS3ePS02vrAXNZRqAlDXxnYCDy4RC4V4319M+08d61cNpOlKOGqSO+iCOAc/HpOXMj5RZ8W/z5rHmWcgjcBjr0SDX/XjhUdIGuV1VAWCy0n5mRdQKJodjbBguMymgYi/t5CVm5aVuIYOK4CvM4bHfV3l0SUEOvjw5zF4PyyaJxqNba0X+PcAyMDo3K1uzw/Rj8Cry3s+UbBO/PRE6pxnFNmzZ9cWeWyTJLX0lwsG4H+O6VJebzEMmrj253IRJlsDxrua4q3A5VHuteSxVYAV9reChtcGxw0JDDm+ut4L2WlX7NuIMgskEWfVEHtgLSLZTKQUrWBgbUUW2duLtazWjSWmYP35Ka41X69Sqi2pTfH8jWCNdtMik+0iBvkFoRUBS7BLlz8faaAgn3tWaoYwL4+KUPy/QYN3JKNOfxIKQcfzQGeCAnaV4pliX8FPVaOzR04lJbdk3cRCsQ8SO1INdRqg0WaYvaaEYZt/IiVFhq7LZz1bZ1tKA6sAr74rGRfE9jh1A1L1UxbGEfZ+jShxNQQFZb8ph/rSt4IsoWEgAs4VpP4a4Ydq0Cb2idH4bAORYJixiktUa4tqNWCtYWYiSYCrehTTAtekvGoRjjFDvpQx5XPOjQ8aBERyA+wPexu7v0jYMTODFX2xUP1gR7Pgq+Ev78xiD1jWROUaykLL7n6Vb0HN+pxqNxP/UyTWdtbCzqBs6rddhN+9a1UW5QyXmEn1P7A47mol87OCTY+VWR0XLTqAarab9wwq24P+VdRIEagjRwJ3NYHiI1T3B6gBlVoJ4z+fRA6+Xm6DSg377+K7OATpDXYiLHxq6vTeRCuoRzr28+beG29cuz/vw8zgniAmPWCIXPPX/AQXp3IYJ1bTNsdtv3vQzp/pWWzWenYeDlar6/VObfbF+KV5l/lzmBiO6d5RC2+zese53ZAyeID3tJylytmKA72yHcoxBhTLjGHAQvNf02zG0CIV/oREp3UPA3nUQUrdGVelM7UjZZ2Vg5S5axIExCfWOC1mK1luHoyqzLT8/nJuY3DliQI9lv+qKk7OSRjnvjcHa9HexN7yupPfyS3F7MoclEebgfZSErmKrKcKbJmXYR51LYzwQdPw4iDUdB2AeBailwAOO1tTjptKWdfgmWYcBjYjIEjVkQywipTPYTnyIhILG/9A87YiXgSN+pXDOAS6oMrKbbjxtBA0e6acqnC0D+t1r5KND4nX+RyCrXHB115xxbWRlDljnKfaI5tbX52ZUwgrflTrBYeNKVTYMUyFB1mqEIaEBczBJdSLw/XbI8VtSpMIInDBPhfKIPhEydD6LiiIepUUOA3bgFKy1mElZRPRVq5qOAPZVJREOUMDjq06tq93rTOwuAJBK9q8RudDP/5jfbeH5NuAAZobPmPvFxloICJmLrprUEmIp49breNzGSKtE/vslK4H6OfYoRnT9RuxZHlY8TpL1GECCXCEyCvbkJNqEapiLmjjeby8ov/1SrIcncfp/IAkPCeV3zfMQ1mMAGRT7V9wRWpxxEOiBFEUSGmH6NgPEfghMqCSkrC8O4COdlB2guHrwNb9tG4xQdhx8yrK3/5CFTQbTsbOzOpY9rbTnh09erReDfN5d+64fYyebjGjVgrZ/Cx1OWQpSeUmthlfq35ATdOsgZ4DU/qy8UdYC2bNHPKtJbGnp2Oq60LNPFuTx0a3+bOntYXBMScskKfUD/Zavb8uUMFEFW6C4u71Dd88mhCCOkl5z2OyQdjSAz27jWWq8dOoj09cWUEfNr8fKI08RmeNwCPNg4uX/g2bG1SENYWQey4eePeTbSbq9l/P63za0sQZ+akkqYC4ZueQES/8WZvmZbTz78gH0uxq4Bx9XRbDTQZa6IIfn/Pcgwn81bwzhLmQFbc+B/sFNhbdjyjsf755RlbvYsJGjQ36BEViA+4P8Ef8HCY9KOpIi2n5hICCfeEwKD3Q3qRKPqSReF1z6DFf9lY8H2aQlXPi7TlpKPyDv/tm9OLSHS1nNQU7zI9kmO/nCqYNrlZ/dPIaxsFsIY0QFkGI4grGVFG0OoT1k8b/vWhNaKltn4ODbR1ntsLvzQobh8He9rV0+MZJ4CHGQuZOna2up6hbpryjToYuNT3+e3B0jyKP8T5C7FNEguOmXF7sGYswjl0Lvgt1CB1WqAdqTD0aT6ZPKxJ+J2sLEpg28UvZz30d8YCnHAyD1BKA0rwcVaBUr+HgxFVTLyLRNl+DD5a4QpeM3qyoInHDK123RL+PWYX686XdRBQ/rRo53JHH7pZcyMUBfuk85CqyknA//jvnzB6XKV8TOwzFJXB5ffisQfDC9ooBZ67YQyAugDBHX58pVtaYijhnoP391jOu6YujrBRm7QKvL4X1B7Av3U4D4v0JhiQBukzbbjPV2r5spqXGeaKBElmO9ZpOINQRZkLUL2XUW47erFPi9gjWU5pSrPp4aGY1dv3RuKMw1erKlVYM9weeorOVerfpJnWtgr6+0w4b3NkPhgcAXmYSCpAvSXbga7M8GJ5qjPwQfTovZB6Mv31QvRlN2rOMAe8txB7TneaKLCjNnd99xMs53j6os9/umDqdtFWJXZwM12xDsaeoFI67ZLsnU7vAyNvf