"success","timeout","failed_images","failed_audio","failed_video","trial_type","trial_index","time_elapsed","internal_node_id","subject","condition","rt","device_id","view_history","stimulus","response","estimated_stimulus_onset"
"true","false","[]","[]","[]","preload","0","4859","0.0-0.0","ad0yx0p337tsa0o","conditionB","","","","","",""
"true","","","","","fullscreen","1","7766","0.0-1.0","ad0yx0p337tsa0o","conditionB","1905","","","","",""
"","","","","","initialize-microphone","2","10018","0.0-2.0","ad0yx0p337tsa0o","conditionB","","46a390e38cd3a8ab24e36e831f9a8c0bc25b60c739be75fbc247d1285231482a","","","",""
"","","","","","instructions","3","11792","0.0-3.0","ad0yx0p337tsa0o","conditionB","1773","","[{""page_index"":0,""viewing_time"":713},{""page_index"":1,""viewing_time"":1060}]","","",""
"","","","","","image-button-response","4","16301","0.0-4.0-0.0","ad0yx0p337tsa0o","conditionB","null","","","images/instructions/timeline_0/1_Barck_Obama.png","null",""
"","","","","","image-button-response","5","17800","0.0-4.0-1.0","ad0yx0p337tsa0o","conditionB","1498","","","images/instructions/timeline_0/1_Barck_Obama.png","1",""
"","","","","","image-button-response","6","19614","0.0-4.0-2.0","ad0yx0p337tsa0o","conditionB","null","","","[]","null",""
"","","","","","image-button-response","7","24129","0.0-4.0-0.1","ad0yx0p337tsa0o","conditionB","null","","","images/instructions/timeline_0/2_Leonardo_DiCaprio.png","null",""
"","","","","","image-button-response","8","24968","0.0-4.0-1.1","ad0yx0p337tsa0o","conditionB","837","","","images/instructions/timeline_0/2_Leonardo_DiCaprio.png","1",""
"","","","","","image-button-response","9","26784","0.0-4.0-2.1","ad0yx0p337tsa0o","conditionB","null","","","[]","null",""
"","","","","","image-button-response","10","31610","0.0-4.0-0.2","ad0yx0p337tsa0o","conditionB","null","","","images/instructions/timeline_0/3_Beyonce.png","null",""
"","","","","","image-button-response","11","34611","0.0-4.0-1.2","ad0yx0p337tsa0o","conditionB","null","","","images/instructions/timeline_0/3_Beyonce.png","null",""
"","","","","","image-button-response","12","36610","0.0-4.0-2.2","ad0yx0p337tsa0o","conditionB","null","","","[]","null",""
"","","","","","instructions","13","43320","0.0-5.0","ad0yx0p337tsa0o","conditionB","6710","","[{""page_index"":0,""viewing_time"":5505},{""page_index"":1,""viewing_time"":1204}]","","",""
"","","","","","html-audio-response","14","45706","0.0-6.0","ad0yx0p337tsa0o","conditionB","1443","","","<span style=""color: red; font-size: 24px""> NOW RECORDING</span>
        <p>Please say out loud the names of the celebrities you saw. The names can be said in any order.</p>","GkXfo59ChoEBQveBAULygQRC84EIQoKEd2VibUKHgQRChYECGFOAZwH/////////FUmpZpkq17GDD0JATYCGQ2hyb21lV0GGQ2hyb21lFlSua7+uvdeBAXPFh4LYYVYxP9mDgQKGhkFfT1BVU2Oik09wdXNIZWFkAQEAAIC7AAAAAADhjbWERzuAAJ+BAWJkgSAfQ7Z1Af/////////ngQCjRB+BAACA+4P9NP8JftDO0hArh+AzXZAK3L1reWtr8gQFPKHxowC4zklddiaIhbfi2VRCNysQFWAAG6E95iL3cwzeecydQSdulGUyXtTeOGv1Imx+k2jr5p6XCRdXnUj1Y7ZrEr6faaNy5n44WfEWbvHlmndHt80Qo1d8BhSsnrFeFps/gnbVaNF/4N4NWlTtsfSPYesO82lpgzGAHh9mv3gRLU0lU4j58ezk2fnNjuUZQnUg1NBqBL9P+C+XiQCrFcTNxTzu1APpRQ6w3PlylwpF2Sp+YAXzoOemhTrlqi82C0HToAAAAAAAAAAB/79f6wRXxxtXoPaXj9wZbj64SEV3niNxybRK0S4rfCaAzt5HzTfLJCYtYYa3d48kYKt9kxxcSxJch/+FxCvOk4YlneFReuAizz2Gn6Ej3oxUVDRAHNHPzgYl4nNxhRPYnOhq1i9AdEH+FQpoR+B4rP7VgAIo7ZjCZa8kSx0Pr1Y9gTa0/ueQJognxntXFGLNEzfzMHzP+WLm66K+xLXKFRFRMH1dUJXDsl05zUQhdWPSONpoqTBUIfpbiEPE7t6u6I3L+U1Y/VWSgd7Kg2scJEORyGZj+mwQyyQP+rOs3aaxUECckozLIX1sUI89e4nG4ZaPYEYhbf0ppq7I/Nk6T4JadwgeSa2LKpeSOvdo2UBO/JQfVIZcvazqL8HgiLXbaKSxikr15ftDj71EcBOzSYwqW97fDdY0ZQ7ux9D2iMG/PQjlygWiCUcWzOHsiYn12trmNBHXhGCQH+aBMGDJsBs8VHAimf3Sgu0JOqoW5Cionpm6zI3qkqVRhCqgWGfnnlOLpkcK5kqcA4zcyZvGwYHtI4RxMEnNCxJYwySVcW3w1uEMAulcxGzA9PwC1G4q/QGFyYGSn/apKWWYXDqGLB6UlVt9BcyePmochLXXf8RPB8YoLZPZGl4s3+v9ASeq1gUlrKDx3u2SW7/TdCwwiwjfiycV5TgcHvubkCdYDXAzGKtEEMeMtKDU2nIULdQ+SPW1XR30CuWSXJqiNVyH/FUQFMEUdcFMk5hJ3d90I7UTDXoQYXZi9EHNaaW8dTapafE4ty5dvqi99nKRtL0+aMonJfrkr1BTIq/obOl2w5dHPKmpEMKgz3zOousIcgoCVAiUYZq2k7qA+9UfiJLxfFiPhiNzUUr3594eWT/IaPDETaDMVcntj4ibMLlUj0BEd3Y9opi0cC1GcDGpObbI86ZRMU0csOiYcM2S4jbCHC3B6oSDWh3QUK8IJ3/5IRa42KlwTixkwxxieMnAda9BtCnSaGhQ4Q24RenM87Or77JTe/KRev2QtVzYSwjhJ7Z+3lGfX/l304/Trj3E5J93NG9OO21/+wyRZTDJA8R1pl9HHvf+AxpcRnd63LbS94bCTdr0e6NDfIEAO4D7g/0K/gpBp2jijeCCAJEwNEhB/LhCsxXAN3jv8CO7ZgvX8rmvrogRz7+XxdzIZPnXIgkQc5XePi7NWm6ixxnNS/2Qx+k7UsEaC86jnWzCjGnuRFcWXJA/vo36TiUfPpIcHKwx21hSs6CfCpMpkZAyx4HgDrnqh2czwHQpYXd33WQCxef6O1B2aXhs+mCwqsyLsEbOthICjEy7MzyNXpPfcnS2DRtqjsZqTw0hBi/d+w1NeCO9WyG3iviykyFSlJf9Z6bYo6OrNecGHJ2DtgDpEka7fperdkstEAeer1XSJCXLpQd53x8gabJjQeSVG2NqGusvCYJPGj/e59qO3U1wEhAQ+SmTjCxvTANl7BODXhIP36HMGwfkt63W5KGTVaw5c725ulSDxZMSmkGnW40G1TBZIqA3iE/7cfOm1MJrXdij0cRFjzbOCbdAA64qaf0ICB6nbQ6Vo0NgpeaLoyF3GYWFi+dpLHjKWgpluHb0Ch49vlLDNo7XhiF3MVQ97oh8Fq1bGYfY8O9UmB4C7xaldG0wA5azrTEJb9PhtFoemCq0lmZ0eV3CY2wo24pMOjL+MAU/DuColaadEPBajQOBG/tcPbDMZ7GBtPXyYMJ0bcI1GICqqtueJiSsYNty1kEvxZx3iH03m+4Fv7INXfmIxu1wpxHqqdN3diOuL6Oh7lagZZrNa8XTUjPJ7b99PFAw8cbOXNdo4cFReWD7CvohYv4Ew4v1iPyL4b8nciF6L6S2ndPnDAiqmlPqh3AucpOV9dopNPg9zCUhz+3sJpXQQj4zG/U13VaF2gWsdd+wj0x0sxSl+nAF0IwFMgRc+hlFHAp+Y1vi99+aDH3WJruuqlHCvy1a8DLfQUu0anWQHc64Lr01E7JZv2f3Lsbq1yKVaw2h8hwzWLMIZuX1LVlqNMchrRJjIWcsQ2INjEqsR9VOQiTorQNpO1jjptjE/jr1ygKrJpEXDr1TwD7GOu6iq2vze3XrjchDzJ7jzRQjxBZ7aqAwq/swvb3kROECUBOKX2N3Fe/cOyshAAGZiSJf5B3kG/gYkg1QMJvrND4GsIQd90f+83wvUjUcFisXbeR0hQDVOok68GbmVRFL991+3bDSuBmFxOQ3ct1a4j+G8LEgeDUtddEMb+agERQ2OXKcJsM2KrFJ0FRBS8v8/V08V61TgVJuRjSjQ8OBAHeA+4P9D/wRO0l6ytmaKiu66qV6TkErROAdoIcjSfWP77ZpVGMnA8eXBw8c1dF4G6vikdFEigk9xhlN+rKzPwKWJuxHI40HwU5NYAYPZn5uAUhCnRuFw2jSsVwEmJ/eHFC9LKedAhVe82TCqo4ZuzHQwAUpJKIRAgm8ES0O+d79DWHz7j6XqaaV6GQ0EQynCrPDDDXCWzatD8gCGU7Zt54EQhap25jS4L6qgmHgew9Lr5aozP9aSFMTjI+GHPPtseGZygPDYlkRu2v0ALMt2kzPeTECGIEzwQi39VS24+JqUd+gQDnFEVUGr6p4pd+3N1kchuvkzkHpR6a1UyrReO84r1M1odtQMa6UnviV1W7Jb2NVZN0E6AEbdJ97EQn8tGAemmsHsRGXirqnIFSJ63MvqcQlFi2FTJ61+0+uZsbJvxPW0u4wfgEQHvYTdS+lW3xm7uJOVeVbkFLzo2g+ip2mMS832v8eYismdJpk9Z3PV5GZLqtOj0jpnINbLBJmXAc9qBBQGXwWntvJF2FHRP3kqsR0VJaeMxWYTx/3/djVqMpL0fJrZWCEJkCIHAzyQj0tK8FKjGh5Zhtcnmz177rAFk0iJ7svZvnBx2+xw+wJlXk8jlnBx9D7z7AeEtWag8N07OHcGxr0y8g2ZJZQvooalF/YgebhzFfIi75JbcyvUkxPQuG/NZSpvok0vMBcmlE7ksH1G8/gnID18Gl9fDPD6ena7ccGM1sOuchnc6gFzotMx7vuSJlnt+YiLvEiE4bWZByXZU7EVjyqCLYAhBlhu1ng/1tZxCu/ML1mPPLE01wkRdHiO8Ua+83IH0+vA+EXRDJf+e/KLmCS9qMdLQHJO63crMAimpy3Ke9hi/yTnX4KlNaddimKWAWZNSucXXAUPG0AZdpFvZaGVSHpFoYRQs2Ywo5414h/S52yg54jEUjOSu1JbPmHdT1V0e9mmeER09W2odbbIr0y93ZbAXAH50T/WjhDPZxBfH7fQzg9ZolAuS6unfFMyE3pKdPiEyiSEbzudiT0wjwit5HmPe9XeyYp6Zu8RtmCbmofrD/RrvkV563F2nrmJ5Xk8M2ADTRKZZzE0lDJbhzO3kKAF5RcyVT0Qem3RbnYV4E1TCNjNMygCcyaz1K2EQKId1Hysp1moJyeMwPkb4NSrNaNKsBdbYol5iJ1xmAIpYhm5VdruFsDymFhbEzj7bUeEM2CVepJjkhZXGZ6b8IEsF3wCJxIXywxFEwMnm5r8YHqWSorvoocERPNBqs6FApKXungf5qjQ8aBALOA+wNCf2/OgaxPxmiwZXtfX+vkFum3zj2mz8wCxnfv1ecCCqxLhEADe/rUj+r8Of6Mf+s7XqKmuj9sPMPjw6TcHe+z3h2qiRMNakNgLmZPQmVj3VRAb6YjtRqT7Fzt8FC4IphcDiid82zNd84ljAyey1ntLAJykaeKOwxUcVfI3IqgCRK5Ni/wv3G1adpQyD7/PU7f7vNqroO+pvRE+/4ypR41Eg6NPXteRbwV1C2aj5HEXZggC3MR5SWu2TqK3QOukx4gP6Ts/MrudZXVnXmAuCrn2l3/QBw/2Rd9TNlYNrJNhfduxIasJK6+AjqE9G3MtXM5TNzR1n1AH6qNPgOcSiuEqXL6L1YGHb4lTjfmjn7f9Hkdfllw9+9lPy+UyMi3aAQoYXp0EzhWBSp9v+YtqrDKhDDd3RGto5grlB2+TGSy2BQlRvHf6zFxxC9GUX3+bNAtbMbqVei65H4NFUU5VngqZLpIg5JMwD3i9NVc0fMM8WBoysvbQ60GrWlQNRavOOgB2R6mpvP9GVj6cqgxVk2f7hlXrT72hDn7Rw/dh8TspoQAUejuAa3hX1xISK19q82TdB89RRluFrOoJ9sC/j+iSkRnjfXdNOirrm2h0TYG1iytBTZ+Qst0z7TBLo+2IS5u3od9NDFqKqu7bD4hnqEYWewi9DuwDbxOgYm/GqiG1grLnKkdwLaQpwk3WA1uTmVPy8N8eBfCMirl8lv6WhT1kbtb61AZPXMzu5H0Xu1fdfbOnHEt3V0Bqttb6EnYsAar4d3I2Raxvg/EJQVLoEwxgfgJLS5LzHbdVDbGpk3Cza1U1NcNfTxk/Zo57WPTpNASivE/EFWTnBnyfAoUIAlAQeSFxiD/T/XCP6iNAchQEsF3pfK2kcJWFUNwvoRM0fYN+NNQLhizr15vFsoc0gde5PHRvv0kA2ea+3jPR7v9btj4QsTu2mhCmlDb7dZFFI6yWyDS8EKd90vw+Eixzs0fG9dx8Xy789y4UigcMutZkUZREPybg+n9OF2atoto4G6XtQth1HDBFqzgfbvhP2K7nGBeVaXRnrTbe4kOYGjStHgDH24GyMkZiymdFjSBAb/11W5Nktu4hlT4565c3rA7D3DPaNTMVtiS0/gjgg+mut83qGUIyjpDfCMS6gtxVq+5464mClGSP++qMbT2FcewahGkbujhsn2VRp5FH+S2yy/ZtrWINau1j7pW73A6Bfi/rAi249W7GPlXJO5muImIIdigQBJzbbqJ3cvt8mT2Z282WZ4Ajn6qO7LGMHLtggyjQ8aBAO+A+wM7XO69/S4Bvqkxxid9oDokSD/aMoMDTUfCeTCOors1fCj9TR7yp8opf8dSMLNwkwpJtVozfxsJAKWHWOBqXmVQBpIH3EWoEFtsS2fYrFn3GaTW/P2GChJ628DtEU0OgImpn0CF7/yl9DksD8nVlftDoms7IHAxBITmnOHB78rPpTH1s0SRfZ1LxMvmX+ITZXu570tc6SoieNTe4oPYaB2G8f+fKSynpzf5bRbqo8RbQuWht6e/GYHHyrl0ve0giInlxW1ATg/U5A6BgoPUFZEJcJxw0wmss1kCm4lnXAC8+A5Tn7DGoxH0J5tstiCgQIVJQUBlkGqIVPBggLnPXukdgRcagVkJ0EnLVgBS3MqMMAo2XPI4Iw7WyjrrQIghroj8HFG0tNkKT8nLRVVPQ1tHkMh0TVt/YKg9m9vTK5urr9rfWrE2MGjW9hB8LXAcuIZXpnM4Z4To32rvy0G3z188MO3LNS63NPkqc8O531cqsa4Y+g4I/Je6wLMi25YoKAiPLPOPH7wUYqVHlJqgXY0GnJKYXlXQTwI4mMX1a6xLUk9i+xPX1w8fxtkp0m6ogqYmwyYD7GjmhL1YMdR2ijJeBKyUxJedvBzL8WCFGtUuiiNU5efEw8lfxfyQ0YrQ0uZ9szGpLTIh50MVek1OuE0Sx0VkBkMwv8jak1V4pxHjYdedjQMfTyIGABEsP0Z9kYQ5Ev40D+U3yupinmcpdTp8vACQH5CrRAya17stoZfN7i6LdBdoTP7aIHU0ynnGGFCFQ1lIT4f85bonzHfrjAXTxgbinM1NCnaVveJPHc8DncSblx7/5eYIWSy1nrbTOB/RHb/kJalRgkiEdAcLTDHrPJH9lAPpB1ptc2nh8b5hVGSpYNnK6U4MqBO91PM3pIN7XL0FGZqFZ0QBP60zGVIFTeSQOQbVE5pAPwtV03oEN7U4ex/Vad9q5k3Ue+GrJNDxQZ6NpZzh8aZDfccuaQTaHEDRU5VaX5JVieQdhNDY9+Enzrc4c6HWSVvu2CWsf7bvb+kk0sRzLKKfTF4GWk2x3+XI6SR15P5pwx0vHg7xXxgDC27RxqOv4N39MnQTxNJRUQ9lbjxZgB88eiW8m74UXhQ6IYGlUUHHIS779MggRkT/jpdGtXcjq+spJIDE2mSXDzInVeWywvVc6hf6QNyTxgccHwSHlpuGrTa+ot1WpkmoXBKbA/+dSvIXuhvqloB/OZGjzQDAFs6sLVh89Ci2iRzX1gMW8zXpT8zgZ3hJ7MGdz2n26Y2VzFRWlHCVZ36jQ8aBASuA+wMcDH4HNB0xdHEgJIvJn+WHkCbpPwJzq6lVLTKgjP3SfsgwHHdwnhG6jVFBpewafl6wE+o6v9XNFr7OoGNEvxqEtOQ3TeBO+jLZ9RIiPigyrIJXgGu67osuOBblf4tdXAriMCo2cK6VWL31bFzxx1L/EoG3WvXdaylP++QE9nrGsb19UBvReVurql7T/K4BxjQHw/eRgW4dxW9PmdLdb5IrDXqPaISR10YvCH6EKAHx+9zKrFB5QjeA0Kg1jIOIXdwAe1/Qie/2ULUB0ibMoZP97PsLUGb9BhwH0mJv5+kqou39GMWP8agqRSv6p0TgU4STuNBOAt0fG3KyWTkGPmDdYMOFUDb10ovcvZZefI6b8GK9wQMlE8OpwgyRDConppnhEstaO7dkbH/8h1tRI5fy19BY8wVEnqo60FYC4SR+4Dt3HqiHWD9v7CZ7XuXULTqoJgUxe7AbhE50WxWWIOyaM6s6yAeFMIbuBXPCvzKI+ncJ5Xp1fv1F/3tRRPB5MFq2Ko7CBywnwB+/YniFK0BM3L5q+Ek8PvDCiRJJxk5sTd6Q0R5XEdzggwkcul1t1sFQ7CwcXOT/1uQbtGG5HgDKl55qIg7BvWmG4n/CUBLPXorY4+uNmQHAyfvb/QZFz4hwYv+1OGVr8r5gIhY7HJ2dO5wDlxFxihhB8B10s/fOAUkA0S5cMuLLSLD6ku3nCYcUDlYJpTMSW6K5jLgpiA9gjv9/DCASbnirqH08Utoa/BFkD+/W1Hxs12WFJAzwUJZpzuR8Xjmnvzu6ZSAck3FZBDPNTPYBXYEXrFsGSHX+veFvpki5qR+i5npIKwy6obumJlnMa42DFPzDWKVszf8VQgzgVj1xMQYgsFuT+0sn2+wF/3A5bm0+4WwsUsx13eG1THA9lN0DUDiYWrMCBKkY9RXMuEfv16+4iHso/y4pvthLIey6cdtgahUxd5OJKxIp2HHuKYeAcT/3fCR08sUeX23A3rf9dz1bu9ZDAbado8RBVzzrG954ZyIf20rupnNRU6Yx7XkEPhH0lYT4a8tw2zpKYBaKzDJ5pN7/47hjMRZCcbuDVU4bh/inEVBGu3TDAGqmFm+FweIBVJK+xuV9dWH0N/RGYodsMzy2FnOapULrzy7ihCBAG3P04MVNeULxU6OJjZ8RGIW+vAg74T5tayAlLSQacluF6sItYbHGyfKeJYJa2E4OeI1lIKt16nn7B08N1qOBA6nPOSfs5oeRU7SwVS/ZzVVp0YUZOG/a4I7EO48IhxiW6eg5smHhKpGjQ8aBAWeA+wMcGpcKLd1HUT6WwhHXUrZ+52JNTHoJoLmJy8Gvregif/qzhua2vJWIJ2WXQ26Q14ygwwNyWbW38XxgP0FW+zd1zusZvZ3scwtf6CwWEi6UCoYUmXARy3iJycDaY3M46b6qJBQMeqljb05CETu9ptpfXahNxPbH+MPE/QIeSVp8oIdUw+p0wtjOMI5lLfd2X1UT3mGlENNwC5zajxOubR/sTzrBYSXq2rN7pox535PIjYhPeQLfuKJJzUT3yseDA4FQBaiLIVWWVzEczNqkTSIwYn5X0+u93Nq/ZTfe/9yXJgSp25xcfM8a4W0nTClxm5TtfwWFYSWWNqo5FWQymTOyl7ARCt5o0CK2fUJA0SgYUArDwOUc/bXgzpVDM0tpt7JZQJgcE2El+BVRvYkEY7jHuV7kV7PvBpkcwS5ifzBqdDteu3hqS/k4NOINt8C+wrXrnV1F7H/DVnXwIQs6/crkARqFjxfnS+NfMFDOuB0oeEQsj06ezmOaHgZa4fbXlRzT+YQxVcMcElGs69lwj9G58VfnCt6YVsKHniek3FH6LLpnSS7dq4pcAYMoiJrXoth27Hb55H/vwl4zAYb90M+oS0+RnI6g1IfO9OvU7+Tiig9D33iPAD7PJmkhjoW0HxWrXxt1K4wUtCH/slqkc0s06RCKk8Bm4D8w0pf7G0+jM45tSe45SXZ5PQQ9JdumVl0rY+23HhtidA4lpjS8SNgXb7g7/qUC5z0Y4XQEC1XH4AJBZy5mr5Qd8c9EiyECFZFitC11fpGn6s9QrkVQtCbuSqFggxA2PVxEch9h90TgikLRV7Op2bIwX3bw23IESgkUkADJNtl55YsYprNfMm+xGbXApazZvvtNRCDqtdIc2pEmYJ5Wjwi+733An2m3hxSfVpuUxkkjBkQN1Riu2yVErj94HOB0yNYZnjyRGwVmRNidb82dlkEIkpj4HjoiGavIi3EPIBSi7OI4TSuzNd5VKT7S89t5LzZ8S7rPtGMzFxhWTJXVv1AYW3YKCWKHBScO/1jrgYsE9dJUBo2abaT4TQifsGRScnrSa4AHPCIyNkJpQ+UcoDBJWslC+a4MBs4Eeo3XRB186YrRFf8WyX4trnmXQ93BGXuHeYmzhJh7L37qNsl5ko3uOch9k1QFBNb+oujKDyupsoPvjpGzzks/uPu8OpbboCjB386xgy0wwJAA0CVMoem2PPi8uWSoqgFX0hfvGZnG8DALtbERYJQImzw+LgxsYmcl1ozMz/gYQvW0yFy/pbqgL0XPS2vZG/mjQ8aBAaOA+wNB8eFMrsLIOBcZKbRvqTMTjeSENFm/nGOKkTZqYbc1LBXMl7tLrabAkTbC4aXhVPb0D1btBLf3OzfY/+MgpuI+qqb0hO0XYSUtr2+xUiWZWjtku8x+GVQkfmAVT7SGraVR7CkxtSXXN/WYSz5V96LGf4NynGGCWkJl0US5/KNqgQoeCdDZ4nMZNxvgiSv7Pr5dK5a4YEChdDOEvmfDc8opXs8IX2/jnZwgCtYpFkEUSrNei7ZxsdS5nzajhkqnr+ap1leoB2KsKIt7iIfYpJvjN++JGnkCIWf3NAFwZ+MFj42i/LmRy703hYkypnQR9ENIN5yOPWvHfXTe6u60JJy6EayQ9COu9fmreGBlzpY2YNgdLMGJNi7AjtnoUD1u9dWa/63p1dox7njP2lYEFL361rAnS0ddhiCaz6ie2JjOjj6dXT+vAhcJ8Htubf1w6hw3Fv2JMLJKXbuQUUlOdeWZM6RTvfa14Khn0pOZlqRh0LBG2qBzdEKNrkofpc+TIotI5rRqn8bgAkxDcoBa9OwulPhlgJjbNvvM6FQDbXPVKmNxTfsgaiAm1aYuAP+YpWKOrrHIAnml0IkSIYYzEHZm7DDCNsW8iEcwYauz5OQn/59Gh2kv/LaiEQiBVlEaIuqy/qxq/VVnXAI85iGIMUGsqDyCCrchKT5unO+03gfxQSB8D13nsFL/GyzQCfYwDT2uf7TR2/cdtpK1VwIyN9ZvhlFF/0Zjyv7XBk1Z652Me7fINJAyAxRIdE2IckAB4jThY/NWPUB3tSlzUmGds/cRqXhQ+NnpNb8uCfEMsOXy2xKKtCmWKSDB2GdWFPdL74iusaNbVxyulCIx0sQ7FNouQnWYxr1YV+yi3VkKGUqlUFSEphZPWVTiyBcPWIFwIsM3NxsB34+xXMFpnv6StPukwAnf7HRgOoBIfqu3jj4wjdW4lTsHZMvPjNrlLZzKMDupV4Q/Ttx8FkU4iyMgLdZiTj3XDvI0fpA9xyK2nI5KKw76VbY22yjnM5OiZjhJlAndNjF9U7Il4vA8hlb7QWX2XM1AcAMk+WsAkT6XLY2/PnmQyvO1hGWUQEeMljN9RC0Uci6A/AEircmv0PJesyQ2mQ6nYPKPOb0LIVfneWgbiRJSU1HI7oXHcMu7Y6oANu1bKsZcCfwFX57cJxKJSZhwvqiXQZhrKk72+rShuevpDAnhdddNPW1C2C8VZ0VvKx/Is+nOulc4jP0UHIFVz5iCUqUUIQkWTmVn+7XL7ITjO+6J7RB49EOpCa9eUDH/3USjQ8aBAd+A+wNBoDKhqXTRuE1VH9Mtj8cmxHWJ+WDHlgZfP1wKRYWQwYez3hko3FOPWhKl/J4U1loL5SLmuUx3SV0+Ys3NnYvh8X4iFkSwENFSjQaWej5KzcG59iiE042nF7l4XIOoODX37Bbmd5AusSxtWF7KAlMZRwYwfYX023V5G36nzRcbIqBGO+h1Bvw/DmGQis8WS5kBGC4sNlqmjJwoSD61DCk3WzeMjgslWSASNSwIQYGD1btifpic8K78BFY+a9TfJ12E0YVaPj5pPEVXHrRgGBdtvzMcDPAuY6uneGkPzlNJCYUniUFzmAEv/PlQEjTAPUIyB6o+TDLhfa/0osAMAsR0U3jmKnGb6EbJwV85+5lxYHWxHVznksYLISvDzIwu2MpF+1BOokkh9IdTNCa7GNMsHmF9xHp3z2cL9RNDbPqmwkLfqFMhCkWmpQde2YbQpjt+SSIB1MTX22uNAz/chJYdAOhpafCFaWrCE3Os/fHkQWLPRYCPRXWAdLLjQ9VPIcKLzFu08XCzWnFmuorglR8IrDpJyyD34+5H2YWOFsH0mxB2QCmcWhMYiwZKoKMYAnbPleV9TdvSE1rgM4kgp6Umd5MhlO4oajUXmrKfcBtSqbEdrGXvqWwg065TfM3JT0l4fCVidL1gY+DT8RPl3r/8NKJ0WNFuQuycp7pfCXcqJS/es+UJ8CBF9Sv6iyK+oR/0uq3aeV9RSf9+PuLI3J83qm/tB+dyu4x4oOJtqYHLEtUjDtjStgUnkjz16Ljj4rvYpxPTKQSIa0eokPCe4F+jzrj3xdZA2D06aEl2oyhiug613zNtesexVsSMRH2il79c0z5e0Ss2pw7d9xtQJkmNFLwWQ3QsUnvsm1psQjDLxpXO5M1aimI1x7r9bg14lMYGdZ9BSj7TB+BqnN9xymbthQbfDxGOD3jbXjObtiHElh3dvpyxQ53tDzCkdZOn3te2ZBJHBWoy07TQEoXMsAy3WX6/Hvl3cYDIupVg+1BRNUXbC5Gy4xKpjVc52Yfq4lNLOUnOykzVu5176bnfjNoHjh7pNSMsTuHfxRrtNmVt4S2UvabR526N8r74OH9dcevvswb2Nn6LMgF4JZc6GQKRwZV4fLB7v8VhYv86kCO347h7OiPD+st0mFzISuZW48pesvza1IxQtmZnjvl0sOaxOPI9cmvG50kIRJXjHNVaU76XUeIbdxe/sgeTU2IG4vKBXdIH/e5JBZ6vC9W7IYhkFvdcPJTIWMjbbSarFPAcerNeZK0ApEhTmxAquVAWb4CjQ8aBAhuA+wNB5BEp9Bkh4xDrJbEKli5lDWdPyHaALQ8/gTCx55e+SF4swXf+S1/I7+Ge1drCqPV7A3NwsqXV/W9Xc6ME5/l/jQlzNqjg1UpUT6LlMs2QmAL/AA8IX1n28kP+0M96WXlfLlenecjL8gv4sqUq8om3UOqp+RI1zkZN8CMMYofyRJ0k7Ulxiywi1OOfgu22f3Y489MwjskHNT8gkIQN4KU63PJR/+SWKEUAX1sndq6W8+1ZvVXrpUw1tsTgLN8xlvEal+Avd1OiuMRzmxixlv4zLWeVH2gqw8G/KNnzCWMSI2uF82xfpHUrykl11/WIjEJsvCudJvLEEwuOsHgNZRgW+l573oyyECkiR+urCmT9TPu14IDZMx3HmMBXi6BAvSNMKHgBwvqOGH/xNt05DAOOXcFdj45BaBxdgSf6KJZMmxitOMKkJPLILypPpKlZEgwPIXpkpGkiEz0Z86NC9N3m9DE/y99Hf/3uD4KQKkD2fHVhmvwh+jYVmn74Ps2CsMzHO3wsKMZn0G5DV6cFlUe3ZoQ+hiwq3zLeK4O0WIY+IsR0GJZozalABVs2e9Cp0unfKTa9H3dsskK8xdwqoePhGQ1NHvJe2jUU9/OVwsEblEfbm6qU8vrCO9eVqtFX6YdVh2eICMIjanFGZx7QXC5NEcQD4LigKAohrTi8yPUxpKBjZnBngnrOfRMK1gH0m+cjhklkYLxE00j/5Mm+2KjcYG3WWF/tQahNaIrC7LOByxHf6LHmZW8fDEai3spYrcE3AjVi0IT1C6igahCDexjpuI3FTM5d3tg/3ly+inOtrHHqeyqPy72H87lSw3FmBYzPDxNCS7jBEt8DlMGNN8EJQadbfUGh6+TNxWJNuy36ilRffuwdsK+CNb0NKTYvqosU8TLP2yH6FuA4rJ4KbuXd6q8q8S6i9nlOMZ5k0fAiYZXEGiEvjNg7qK1cw+0aim2qH/NXf9xUf7RRRjPXh+hrB39k/+w8/zgrdhaA0WLD0VyzAtdcxxMcEuW21/zugvxAbpmr2fs0ItoSRjLZj7OGWw82K9BZ6cmYhPUL056I54mMVZqm45of0F8UsUwj/b/3TlU4rn+bAsQ/gH/9lSFV32zN6EVkpqQPNwYP/8N7Wstp71Xg1jLED6olRecIdk34H8brEnel8o5Eq+rMeIQ4Bafuj7p36fkpKnFuUk7rngVYz6a6DkqBPX1mnb8jnQ5mA+oT6MIZhdqB/8El3nHstPL40PoozY6bsAg7zdMxgy6/Dek1J6iZCpZRtAbG5IajQ8aBAleA+wM7WKKF1+aPY++Y4LyqK0nmP70c3XR4ghTNU/e4OjPTStNLK4iNRQmjge4CA1wrY8T6fQCedz+Z554CGgNE+SNhjfUzd24jdAWPAryQq/n06WhoGmd7JKxiN5FCMK8yFaLo0bdU66TdO/Y870ftoG3DX5rn2duQvcY/xHBisfXbB86y54oMuTqYkkiC4wTrIwxs7fuYzj0z1z9Jox4EkITfS3ir+0p2Gh9XUxLfqJj3olm45YbKEs6a8a13KxBip6NDEvMeS/L79zgiF7VW8ZBHlEJfExxgYYsZ8QNjRVYo1fKt1YmWQHdW14vICZxJdJ9aSJMaJTGwyMAtGcQB+mQKN6EKT2M/Vmb8QTi60pxTcMfLDOagmAeoHBk7cC83z4yR+k1W9N9h7ikcgB2ehEVEoADLBqnXipPsEV4pjgdZrj4ypsg8L4ZGS6NMS7Lai89BAuNDnBC+z3iwoqBcdWnd3LM6O0gk++7G/x4UcKGDBKerLBDgqjFiGiPf1INQ50xnzvD8As1YbnC8pJMFIIvZRZE8DM5VaHTOkM2h5yfJKlbMZGWAxbbowP1L9YCCLqbjH1UUB7ROEg9lIp99Q+/ypNXNyPEdcooUKrIDqDl/7vFxXy3t7JEmUCfICmfLEkTeYiZxhs2hIRXCPIPSIpTVL3nTWZ03Fs6XVeSlBCBRshinQiDU0UPh/l4PxyLGMop8CiwsK8bzX80Qhs9W/7jqXORGSnLx/Zfdriyp0K9GnCkaM/Y01AtyIsPUVUCcIqU+UX3f1MVplx2zRATxx3xUf1IS8HkBCgWo7kYmCmfytGb11yClqRjGZVAS8FsTZss9g2c6cTk8AdyDdXdOxtAEQbCRyRRjyNmA6MKioYwllxiU7qDYKR99aoqwN9YfmebyWK3LxZDD74IYkZXVblVS3WLUSXEDKfWOFnSwD0ocbYrrGIv1ICMoGKRo3dnhO1di9ThqyMteW5OrzFlDnE7XTZzXRzJOvpEEarTjjoFthDZSTmjYCzT4QPwF9jNdIvC8gVh63cIC1uRPmgUfI/P6hNNSgkpniSkNswcCeovCAi2sTe87KqGVRownzeadl2mAiz88ifsEmgNx0u5G3j3jXgGjHQ1gKoGu1Fs9WZXlAiL8YQj6+xu1ySnLVfuGwi9p9k5wLpbQSLBG8iejVeHKfz+ctiWu1XHOdCoApJvzl07mO9mOmZcrwheoEeabVgNk/YXHTrlCrGXDFDmH+BZOUqxlxihG50xGnvrSERNFKYI2fIxoSGUZDPTXtsMYVgajQ8aBApOA+wNBoGM76pXmFdpRWAIRdy4xXMCB3XqGhABwFmaQVk8luM0iG/v2uGRL/CwJZxz3a/NOTlwcY74gjJZ6YULbaRbG2SvBFHse14jnXkoIbToT7LxjTWY8cwr+o/2YVcOp3nPZWT2TFfeEAZQ5rDvVvOcwtSvP0smArg2uOVkyXPBLOVRmVEuk+LTyzgCYmd4I2qYUD50RXtbj2jGet7QtJrffRucxTYv+ZEtfuiXtEHyx0DrZ0OBuLeI4M9uLr9W3qjYs4F36YIG9al8TGdkzMaixJs/uPaxcLa66jppuWidV4sLDuuLp+UwklZjVR6c4eqmKQLncOYgsBqUHcCB1wsZkOGDw52ICo5i70WqPMaW1xbMDUCPeGXLM4NzSSxoOkLMIX/zSYXT8HKBrYTy+d/vTa41Q8nAstaXsb8fRi/AyjROs12Nt1kvWH+IrdcMslznb50GOJuaSJR0XTnsgqWQGjIDGRKO76DnN6M1Pji0W/Jdh0yNQkxwXrRL28Pyd9wuX7ZAAJXEMSlqBEn9264G8OnTeCoGRei3MdIXw6J0+GNGXcyA1FdwLX38oFqYeNAwZ5xhr8g/zVqaHWlHs6Ym4Cgc32/oFK44NZagOHf+PmiOzutEGTaiTucJMMwgf5KDkYCaZkh9+nn0h4F93EPbyTZUQdMu0Xwgi3fMHUO2E7IXK/kyOLw0jrM8A3kTm/+QBU73PYHIBpJCq+NfJASBvRaVC6VsRAeEWRsbAxn2TGbAjs1lF8WZMrfO0WEmsi/hnL5Wf5dMer15Zi/W0rrRC4Jo2wQv5ic59Bk4n3hV54Z3wG5zQMd9K1WpCVOjiaDJxRJJqNJmndP4VO5uEYw/CEaCSgX7AAJ1saOoFGvFCkXazqlc4b3pd2atoMrq2b7BL9y3hmsZNs5uluimKfJhCWv+hWFaszkZ9K+QjX6eMtjC+MonaZFZNXeG1/Ct6wq/n2EDh4XFD5Md332vMzZiDleYrrfvlvaQUU/yx5nCz0igJ5rqrJb+NW/ohY/Fjmen4DmJStnYMDvXr+Un0BHac7cyQU/OeO4csdInljFPAIkI/5rkgRTaiQoZodrGmnE8xCeXVAOBSkSy/0aIE6yUm6pn4XZFbHYQ+2sLu1CVmjXLUG7gkN8NGupHw8vQfUZ+d3B/gX72ztHHY+rnatVbM3FprYKYSUFGV4Onz0mMkUCVg2f64zfs59OGu3mc1Bn9cOvUXvnhVSK6+8y0dHcAhb2ZwwyfAv468VVwYqYHIDkk/830zQ/6YOaDxjkq1noGjQ8aBAs+A+wM7e6dYeIMH31G65tbym6BY0wW29rUBYDqOfkyK4a8zk4/lDxetShml8GXMKVHcf3XwWQFpwhSRqaO5ihN69ZHkiB1c2Hqke7O+TWhJqkVXwCEh5wzma8RAR6uMSsCtMJRWDY/Dv9gOlHzNhvGAbQcsXJoTan1iTBmmPrFaLffkpZOmHFQ0Wgwctd3/Oq/gtulqRX8mdCV1s8Tgg/7lZr04FihMgGx3knTUMNMfKySGBvw7qPQKaBZMu01f/9OF3Jiulnxz7SvZSQpGGxkjGxqS/MZTfW14xO/CR0Pe51LFPgTAGkzGTA2n/217phksz1vEgTb9UpD7YGHCIwuaUyOFhigSsxOPJ+wgimcei7ks5AHsciE6H8dYu4XgzEa0j9Mq6J6FMcg1BNT8iXntM+aZXrkuacbxexKmPDvwpMANXRHU49eahLqHwV9n3abCUGNse5pXbZrMlRQRumpp9HjJMg+xB60OWMMFNp2bnzBxcfZPQkwKVWv+eYF6p9RxXeIv94kVSdEIRg2S5Lm7ZTfe4Bbe019F33nUt2RSsS0ONYZ4G95YV9jsDc5dNQDW5AWE3wirMUr28JPwhpCMdg6fH+kmTbQoKP/igBm0V+dz4+CcKbTOINXbs7yoiK880+yDlFrQ5PmijcwzUEbJf60g3SLK8J9t0OHjW+B/8IZiE3o5TL7xml4FoMxRGcskJg+LOlw5mKItAtZZv3WQC+E6M4AZnxc2wB4urKPw/88HafQz7rc4/gkqb3P4UCjXpDoRO2oKWaKTRtoh0dQ/75aRemjFYqAjVzqf5W1b+i9gVZBHpLXD6SLFoyic5nRe9EfKGFyjJnt8hk9v+1hObFGIPK5B5rpzbWKJczEnBWr5swDUaz7vxoMblq9wftFyyh8JHw3Rkz3/b7h14iQXYmddF1ma2Rp9OqjBDjnAYAQ7IRRUAYnsQAEIqxGcPunP4rOaaOchFXrbXL3GHjdT0hJTUVOLsVPfNuNkEA4OheY9rnuer1XAxXeWKxopoE6GHCklHOAJRfaTBUvJZcr8u70K0ROi8tdfECfMP/VmVGe0d5U/mRUcJcEwBJzlbm8GDnRbFmL+cBbPtVPLS0r/hs1IvC7ekv4QpYHh/1LM6598RxJiIwHjzdBLngebo9tp2Cd8kGQm/VwgelPTEr6oJUK6U9QR+mA8notmohkI3lSFGB4jrc2RlQck6ecoTgYsHm8UHXb8jI70lsNBRJXTeQxxNBhAdGUn2ENH5hvv3rUic+NCDvIUr1IrCyI0J/dQbfqjQ8aBAwuA+wM7SiYs/0UWoZXCy469C5wCL4w1M8H5gXQ1UJs9Cz1yAB4kmb8Qs2MKcSY8o05mrp8llIegkndOACH/PwkQ4eWl1wkLWgaStfNIHI3TkNa2IfdZI78F2dNpp+0UHAyHOo+ibx6q26fgBz+doDp9O2yQXO6ZL/YNnGt1g+cbGKDrC8aO6YgugEkB5eif46bD6ul1dDH2FfAW0CXyae4WCT07wATEyz1pEpYAdhNyJzejRwHM6SwMbDqhc2wP2AfWWl4Yl2kHSzOvlbM/Yj64bQeE+pojjinuq9Jw3pPC3KCK5yXnoEGWKsH0ZP1bNefFcREaLy+d1VWtolIcBux6MnBAuVHkLo9veNMiD8pl+zyhLtRFS03Xk512uCNfx0C3Pivpei7QyQTowcardVsqnAE2BHTPX63jmZPO2z9qO/7mvTt1vNL1Qx+OE6yGjQc0wx4KURXV046eKAJkNE50qgoJDzW2ueTItKRtZxjfHTBAwJiJ2csuqTg35bt7jJg/yAgNpeeeQmzC/bDfa1G38Frsc3ortUTdzSSbphok13VezxwQRTQXd1pwyYEaSX8+TpykYEYWFOxV3WIPwqYy673TX7SM2CB42jG0vnZ8ZZU/aJYw1H8TepdguuThOG9eSghM0mSuThDqYKCEPsSXe6OJYWUB5POesvN4HcnB9WXLgw40DGVftgCU+WmMb83fIIKR4NtgDLWoYJZCJ/aZ6Bp5EVJdN4YJuSG4VmE8Oeh6YRIEceiW5TaRGWVGit2Q1djXNecoLrIaQRxYtj5z65K3aBk3C6h850pEdWmYSsdbWugViLZGqHwxkRaHHuonQfgXJKIccFc/A/4iO/fJZFSpE6BHFbrb4l4y+VL+mM71XaIau1WdjEvReITc0jCWonICr/zSk21clDj/aHr328XSGYPGC9oihXDtF+w6ciie1MVdMZCqwyKTgxPVmRHuehHKVIO9Yo8TVK+JGzdvXrWMy9VZZit+lNpYQ7Ogl26fN7QCpD7S0PIEpkEsdDsTYg0DRa1VncMJb+tPHyKSPiPSqkrEuXf2S9PoYa0lEhw5Fdk1AVvw0IStxk/C84ZIE/Qf4spP3FU9RQ0hvwNHi+H8z9SqNn4+GtJJnIf+1YvEwmh5U4QFC++wXsOOKk5ExskcwS0T6a3nSEenI1Ff2ufNCbnJ6JPLgyPv6FqF2qS50W2J0wex3BNcrZyBiEgaSGwg5NR6OTArIlkTgRMMMxQEEmK2wWlSR/uUIQ/JdvJ2d8bCoFR5N/cU7LMSvvkK80yjQ8aBA0iA+wNS8LbeikzbJCpDHzNdNo/APSUUG2oPwi0KUKVaCX+lt4V3E0jZVJWKLkoXOZMfI7jls9XAiF7RoAbYhzltEhHPyvCDuVMxqcrH3ReW/hV30PA2PWLkxehKEkWMO3M97Q+FmhrOuBey9N2wmxfy7wDLTiwk1OA5e6brvteslvANtekwfEvBNhgxdcl3m/6eX9YjBqEL05YxVa4FGziMNdmSrCMvKugbpCgxJ9r+BH5yxhHPxG6JB+VZPrnSnVf1L9W18K1w+vjTOmdCaWJOyiFgG4jsSuC0VhWp3WZeMS43799jnyyiawTx9g36ahO8dt4ab5Bp0OUAglKwzaIe8bk+nJenNS6KtM49FUsNhFT5Hmz5yNxbJQT4j9Kah6PG50dxGVl2WOiqbsogkOalgEONksVGy0RUIevRvx5EB+9BZxQIB5DHneyC0whgFp5xEv2vJbpTjVPyn5wucZlt2TbQjkgWLn4WE2kr9EwDn8m6n759WKdEQ2IhYKdMnrnA7wwnhl3ekEh9J00urgo9yB44hpOHkaKCOYu/+lmSRHDCUYFIEtJbufLW5n9PKnc58CKD+wtqfrzHFX3BPYQXv29wHGUHvmEYVgxQ00zBO7lZN6FgbNc/tHWZzSDx58OPkidPmeb0+tsddnCDQPR4vm6xnFxIyRD3OfUEQ+9pmHozQ11XhwzJ+k9wEJ2D6lff013a2rrIVfx5+51W4kCXURUSrX5dKv6IABxfjPpp1iDsES+UOyPnSuyBr3uPstZgz7A/VuDyky/yD7yo8siBFaVFS9YggqkTzIquKz9lTP0fDNmmYV6ZJo3Z0MOCBt7MzoYNcymIOlgXJPoGNVTCiytQGM4Eqqpv8vtYBp1wx/ZdzA8XD//n35nF3f8e1VrU/xQ7nTHbVC97Pj31crmwwwAnU+UFB/PGoY/U5dklorsfW6EvtPdsnnqGfIUXU3clTvgPRzx46149dwS1yI7/DdlQ5cCeXmfOp3yP005NGDsH4ERyNvnvouRQPA3Rz1V2QQyXo2hisAoXZsgZNC0c7YLvwe2ELIinNpYaOwoUOrTrU5UqUFScebAFiFr/Zm0hkD0/hog3Ga6ROgpnZfp4fNhwLgjwmXGTNA7RC3h+bST3u+tctkBNR7Bh3Anif7yMjnw92ZiefOECpPiYhc9NdbHglacTx9ukXd+SfykbvcmrlYzNXYUHFSB3WZHLXZhntLyVVvot4GYGYXhQD6CbCqs1gY60/aFGGvxw81TSxOieh5+CRiCZQmTz5u2QN4nauPmjQ8aBA4OA+wMRAQgGovDc8nIgqX389zYffEawgdzwJgOWkeZ9+yjD8RZFKKsL4TTqYrRpOdL016EvqiP3J++r86auZWWBCzt6zvp9hPlsiG5FjlrwcmGq+UY3qzwl7KlvObKLyrU3i9JOcVuVX2nMh7bsCrpgzxRH77/1F3SiMY5TVgx6wGikJnv0XAOig5rIECbsPktXKChaDoPPrU4EZNTd9jDXmS3Pf7llvn1WPnr0Vno8aaaJc8dZ5mqbO0V0tqG8jbmIvE4JQ3ybHZjILORSjKaRg5Re1cR4qyPvzhBhgrURntAHM2ZlH8n4A58NhYeMHuI+N5AbWf4RERGgAkznCw22wTS6lgdvW8jnrGO3yih3fJYK/Uu9S5GVMeiok6wmLHXNpGPA83bSIvdMGStvtQu2M1WcQniqaDoULDjkibycTiumQDwW52Nw6RqPxM6Vqn/165BthyCDB/Qcd3UOJ6crxRSDre5Od1ak7cUaU9ozdirFoaxmDFnerfTdxiSZ/t6jKSXTaUiF1SBNfHqS67Ok7PyhF74+JFUD3xPZvuYKbUgxaSDBDGbccAWbx+E23TP30kkP/9EDRBE067942KXtat/e0QQnY4N5X6CLAXY277lMgRZIycj0L02Py/FsaFhk97BAytVRl31nMckg8hTEtUVEkhldOM62NF2RLj68iw6J0MNqexS7Nu1dz9+nQpNzcYuyEXddmYj2LX1LjERNmnNNS1+d9ykb+BvTtJzEEs/x3eNbuF3EFUWJJSMWWrKEftU+YikJQcuxW3JB7vqHVMN0It75uQYVs1uplrZyit/O7ag0DiYVViF2pUQqUY2QqiCFE17GP/UYEsr0k/ws0Pd1PGsLXXCR30Rvr/vjNOIKbkm/hr0pr3AE4Xx5JliUQWiyFOIS94/rkbyhifMKhTDIZVLzeGe3ImJmx4wvE9//cuukiQXe+Y8kcKbMSB5JHL7Ex8e25/bWOt8T5+SPtgvTLdxIWksoq/Q0cp//RspWr2OUZhXYlK/folgMD2PIyohkLxqBWi5ukaYa6z0cATvgx6aJ/RIezDICEn+tVGg0mCFutj+D8f44WgfFvkCXXCyB8zXDcvJuoBwtu2uN4rqOXSt1vYhuwr60k4bnEINEiNRGPRMFmfVh7JYuGbmty+0liyW9n07tOO2qc5ER/A0Y8rIJHQ+XvWNk7GjQBlzUk56N2ImZGlYGG0WESjyflmh0uPHjJyOE6EZBes1i7I3gGtFRvdOn1hb5rYRAWy17dHVyOAtaypmGJ6WRDdtvEa2jQ8aBA7+A+wMRn6Q/ywdPswxK9LOEU92Fp0pNCEtLUvUq+BCppnGgU8bCTz3wG8Xofd0MhLPgIUfNzYMrp4lZ1fwfFZ2+7IoUecjFEDhbHGB3hrY4pu95ObemWG7j8WbQgyqcntqroQWiZ83VKlyVhu7X7Cy2NhqOFvAYdlznV7gfPqLHQhch3oFtDlVGisWu27hsrq+uWJBm3GYGsOlfza+LbMd9lQIrYZo6IsYrHQQAF4pWZkMuaNo5C3H91UFaU05HdX1irTxGShYaz61smI21/URg591SuAGalHl7YIprzS+ktqZt7Qz2tAggNS+ivMgSTuIxBE7cbxRwAeMJr6k5OhThil7LB4hwlE3Hj0mHjw+ZSZSS42xH1KcfuZ96CqlGoudY+Fr0InYHUiv/zR6MTOX2Xp09Fd3cFLsmypb63Dw/VMyKQD4zkmwdqpFylByPCfmW8v7S3nvwr61gV8sDffsl8fN4DDRS+WAo964Hv8SHzaVjsE49GQdYyNQvy0X0kFOgR5lt1FfRaNYY4TJ9rKd9bb74zFNb0z8APWsFdPuUH9gpsvtbJwTjXXrivcz3BupwbFJ+q0iAMNtH1u4bncFzFNWe15bu1YWXONw8z/Gi/5EVieZcDzczH2A8uFnvX3mNLIYWUeclnhM6oLa+TV3oLseJFq5QmbIn5Ha9gXlb9i8Hnn+JA9j1U5bndIuw3MtU4VK+iw8MBQSW1RoHvsoZ2qhSTmAaQwWuJm4TO71oUxR03lp2OW7jygC9Ymw6SJpJDPnbrSxEg6jXn+U567WFfDCV0TtGd4bGgzJ3mVtRVD7X3/qyAqq7F8SH2Q+flUiPM2PDjy+LlzYOF0AD0iQlfNxkO4VUSYRYOIKYTgSXYBX7HjHcxRqqyjo1hFdWty4wk1TrFeIyklk1I/Orckl8Dt5mGUjnmUQ526a9Svarh/1/pqbj9+MMFzgITTuJiUoFHXDJ9NhdaXjTb0LUL2poAhcayFc2zOkLtCSi/Zc8v0C6jzUCGqnVtmKytvSLceCXaI8qWtF48c8VXNMCNLJYFWwa+PvQnba0MhKKznnMSGqfvx/tmmwRvTQzoIPO1MGLZVNS6yKpKv8OYr2bFLxhgvenP0svdgxfKRGzqZXMtOaa0chZXijpGRNMp1Ty44dG6sg0g3WfHJFlo8GHKFZnoTtE+0I3WDeUtXpUvdIv4Jh0Qe5QAyla1xIUclaNEDXEpo8RbvwqLq5EjNAPVbj8WYYbKrqBUX7VxLzL09p5NIJCXYtrPAEZGCKYDOh2cYDlfeqjQ8aBA/uA+wM7tMTfr07E+4BKPTE87m68N72/F84D5PZ8PDtBVzhrp8Q1kGpz4aixGeNcROPPqX5igmI+ecdWA/ZqbAZA4ISak8P26zqrizY3rnWYmIA8/wBPAXnK18qtZj9jARiAVPK3ZIVWedOAzsJ+JXB6oYgezH52Pucfoq1Q49IJj7kgDfi+oED/IZB3DmwcSAc/2ktc3/X/tdVMRP+yRVXLcpWQ2BYGVSdfpZYUn6xa6E1TzvymWN4tCABURgvgSAC2kVymJeiVjBucg2UrZa0XkqFZiYuDCCNs33hGIkb2O1qTng47T4uCEFIyyCkMV3+nsM4/tldGdYda3Ma/gLemb33AwqUgR8rwaxCK2gkU3v0nYkMUmrkl/N2xioBLD/jQTXvlIyIFwSUiWpzVcr8SXcFfgRG2VTWPuoLYwSD/3EXVrEJ26B0gt7D9EDgr0j8u1KEPo1pYTVg/2XNGwsG0aVMLVXMLAS1I1ro0/wwdNUDXmKkyXj5nrXjFZXsvlv/pR00xDf1jOM1vdajDqACR58LWtJm4lh1PQCfAYgDzsdtykDwQoxJ4r85abFhvwnDFllO6GX9MFhtaeYQDicMoMYfxC7FBhzEQAesGOfI/1XeVOLJCGp6fTiR0TKWnAkOQkv/OdGo5SgYtfSVQ6NcDkWZqugYRLyAf989iaKevDFughZtKFk0SxFHgfmYNmyl+M4UP//wb3YzVx63SkhXwil4fM6is6MU0teQz4wDtGwwF8GhnUwF+7Zr0aseQO/AmNIZaB7zcE9V8AWEeoHZ4BDc6ft2yK+cbpQztI21Z0+a1yvGy13Dn+27zCYsQO/i0M44D9fbuQA3WBOrg9YcRAk/DGH+j5VfSsXzM9ig+l89d+EUWmHbLcldzsyCbq06zNYHTt/paJgoftTuJ9YbeLgz8jz/CxIWCjoGCii3TPFC4ixrXIerf+gEv4fKcyLUweDJ/MnIap/nxSrZMvXfRSYmjkNCm3eav0TyKgTA4y1eUwkSsNxIG4a17y5yvUqvycM/3smyIRoRb0d3dz6fvvRbGsMchcDMuezznAqrY4E7Elk8VAIqYH1Wr6NjeRoegk1dxGJfZCPfkEX7p4zqjI7vBsoSE7HEH0V1EcWig4oV8Ghj2PArSSg/lF4p8eMitUXlLYRF/MMGRUeICiARCpXzfg05BqAAoL4aCpZYuciZYSQAjGMP9VLpRnX28r7irPoB+E58CMVch1mSBF28EMpysP1yBaZCVVjCimhQrtl4LBGp2hOY9PoaF97/4MDJokfijQ8aBBDeA+wM7XpP3WuhTtENEmRiUFMeUQSHhoybKY96tUmJOXV/MlsXbCbCkzA0kVk88HxSNDRwiPCyVpG3rnYXVntUndLyTME22EUGVGiKvWj/H45P4zasAakK+TZH7DdU+C2SBjpwr6+6tksNg9dAIYkaP6sP+ZoqY65YNJ5y+Eh6XmU7ugy8fQbZwXKip1u+mEu7X3lE6l13g0Qpi+tJkFbqAuJ6/wI53mwg+IFSGGsIkkmz9nGsSWmXN3jdPnUzeRunvQynn273oPxYlJfDGi5TGaVqvxNh/wADCrvhX1VvkuIi6AcuP5kv4xb0iE0OtLUn9LMexkCx8YaVvqttxPLRZy1Qt8Lc7zXp1fOpeqa7ekMjz3aSEJNY6XSezPrbDx7h5y07Inx9J+927OooTpxd7WqltqRMZCQDCbJL44WnU+IY2aULVBXycJggHcw3dwFh8HOCEkXJn8OjVe0M7VcYROEptQWn8aNatTqBKJJTtVQbG/A8I+P8080ezaNqJdbko4kmcQhiuuazZBAiueUzNNE+qVPfEuOoSScauhAs5tvQDR30u/eXlLAggiO1cE3ZvIrHKOqMlXH9Tar27pcvrf5Zr27a3XOCjX9USe3eEyhRyp9C/7nOx8iXLrK9K/2v/l1U3ut6D2JPK4EOJuE2PB5APRiYK5zUsiX6N2t2R9TXIe14jgdTe/9LPyoiwLBdninwtxbfGFAPOeTPWC/cfE1z3w17K/j1ZgFslmbMtpQpIExqgG3/iwhyATkEGNII7E/ACOUvDeRm03cV7hyQUSi+m4pXbNIG4H8mA1+5bbn5HPXcMvPvH/4VM/5fpcRfjjTf/37YzLSMjhOpzHtNX6JfXQsKfg0fGjjvApp+wP1XiQmJbgar0naiXW/xzWEMVp74JtL+jp0yQGhM6h7mEcTrlXsW8C7HGk405p/8C42hy6P/L+I8Y5XS+UqOkwnF7n9Tpd8XDpOOvjTsSG61oCGEDBGOFJgbNe9gBDZ+zB7RGj5X1AP6+N+HjP5ZyNgFU//H2nH2IrS8XiM7MPgIsdJ3deafvQ4Z9Yn2OCT/zmfjTteJ81xPlrzNesHxynP5DlMtDW1yIx2MAqFt6ggXFxRNqguKBwQGzrIAARbkJC1OsEBA2a76qIpgliEw3QdGkdaYOmdHQ8NlHgMwuHResk+d5JjXpltOR5vjsCOUuY6U1SwaiDb56zoDl8WVUrF/tS2o7TFHlmTvTwEI7Qwo9E5nI8Le/w7uRj2/iQ6flyGAL3nMkkC9T8vO5CxKtk6ignYmjQ8aBBHOA+wMQg/xpiMcTD/9USU51RF6kgW30/T68aX3PLUryYDrCtFKlpeGaDkxnM1TxIOxx5APNat8eW10NkmQ44BmGl7BSUXR7IPKFXVhJZWcZrUvhhSPzjXaoagUqVrUgzBP16+1FJhgYxpG9+wKVE13bt1kG1uC7NsgYbucGInkLRn+vs280sonQ3sEUgoy9ry+uBtE7y5X8l/trnsPeISLQvj5dAj8dq8NmPMplpPHQa98sgPG91lCzKnmK5unAspSVZlLVw1BulU5K1wsY8wj+Gu3LIYtnvHzoa9LoItoiAmAG4ob8Xido4yr9EUvweNZmTAlyuEVflYehs8h7YG7rLAC3QH52TCmrGBck6TRRLhiQLYHxpXCufdGwYSGpCu7NBIqUiRg4d/Svv45/RDvATxZgblznoVKLChNuw1z5jXLWRRQOFxDImp7p/StZjGjhaPB4jP962sOYSTvhSj9MK4EBoPWag9gPR7YZI0FNfwjmz/HeL75zriNx8e7W9YvcN01C+8UelzCc9Np8riBFybYK3FYe3AUrAx34QCe9VykEDxT/RXti5ve+/J6FU35HtLIDXzR5nRmW1DrFysJ5fT5Fd42HWDkpy3NZW1arL1dvTLksUuUOCZbaUcNzgRHP74+7KfjmFgUvC1Uixl4ZBRI6MhPt02UQoG1d0LHTsTceI8LtbXJEES1Thhd+ls1SU4+wGHtP0e3GOJrHjG6/VvzgiGwnhfpJfk8cZOQfKllFFgxX0qmoK4+U0ym6j3OCVDBv1PiVQ+2mAJTCYTPpNC0N/qXRWVlbVfVumjC0VRug2+2xi6441KZmGYH5SQ+MTiECPjXH1oztgdXUyHb0hebBQe4NZIYQWdSRpQG/pF+8jlysOrfYZN8f8nGIXvqMuEXBKRIvQbrjmZ0OgqVal5aM8leGexsG50k1VwcFfg6PFYIh88gPfMr1tTuguHdyZiPb7yTsDkEKhXu5A7/j9del6RiBDY0DdPnhGWHUQV10N36ojr22iNhm7ec+cv8CDfNDxv0+goBScyGKTCwg5v7gieQkob4imhRU7WVSKuB1oOCeB34nmFVQmbNWfkwJYbeJcrCWDBnBfGkxiQKUxCRhT5kxlZ2XbxqelGguOw+bm0XuCUJmB0wvXfc72vabTUZJglKZWzYPz/56kDdkK0Jh/szOzp2mJtwE/HOLsAspeDi92Suv0LqSz0r1L/Qf2m7MtO5CWNdYAWZtAh2zpfHTH4rNSaJIcWYvY2uszjZ5o/GXReiP5/wHDeEDz/x1+o2jQ8aBBK+A+wMUh2eiWjBpM6pHLgQxZmWftTVpAvqX4zYNBBv3p8TPodg1IYPASoyZbixX8OvHz4UeASmzW1a5vuFOTzJfC6keaDPkMB6vQXS7DsO/OGJ3hCMGPPBPEjlzK44qxghcFLxjWbu5/VAuOsir3WQj8K5iA4UdiPIm+4PdlhLrmk1w0T7DFHrrAHOHXCXZZZldkmtDgUeo3gcFf9Uws59p1vNZxyptY83iWvJEUk4o9FzTEw0PLz2z3b1E8pw+c8W6R/fUbMmDvHpkgLmo2jTOMJgRwTXJz0kYlbVljNoMoKsMt1ppRRdBon11mauT81lvH+AGohK+63lVFSYjSLXO5SgK0bwQ/+RxNHEJGfssfEiIRoccGmmE3w/6ognvmoaSBBPELy5dl8/4NH4r8TTjK+HdOBdZRIPRZxofFpyKRnHXCUGxcDg1grUOhx/F+4WVPNZxiy8bfgp++21WgpFuW0G6xcPMgcXgSzmRWGBzd04U35/aU7amvPPoJ2pQMz8M3T8n02NVvPwZIP5Kq80AhRK50iEkOhCpxjVi42elZkZKoyokz+XNCNx7Kjdx+Q5fJLomPuQfO+If07Y2x4B04qvUjqIC10EF67zIwJ1g0sOJFjx36UsioV4JSkrJKQxkuIcIPYNuLN+RiH2mXcaU3Et+T9HZ4uM1RWLobsBv7polsyXxhaQWgCbplP/eE2P0n8eLttA9bDh8xIlJGa/wE2wQtMt3dxgSgRk+9+gCsH6P8QLCkgMaDXsXhaMXUYPWIp8N/8cKwA2WIWwqBmVlKrsF8NqqZVjHe0gK8T07U6HtS64r88iIP0Sbce5p+7EQkCDCI3RJnTjRFhqavi9v1WCGPG7KClszVFKMegOvarQI2Qu5iEzM9lBSd0naXTl+msdbVJm6tTbWj/mkdqh679q6+RxZ7e+x7fX0ul+J6xzwJ18vBaSi/3q+dnP3Z0k/K2CFZA53My5T208qXoBjth1DtbUX+AT96S9eDmmyytZ4TrDTCFXc6XTSIEM/90Tkeh1zzoDTS1usjuZZj7Stt0XQ+3EHf0V7r/J2KV7RaCIEnoVyPvXiDEbqcJawZs2aLKWvOeU8RwPaYRu9IZCae3+B1q8vSM3uX1tal7nKUJBvjfSM6ZvdE1CHwCq/XLq5uTsy/lWyEvALHRILV+4rVj3K/iwtQQrsI14YySwcUb1CmkjQebxfecTdKPXenH/KWY14OmyEjocepBviCPipq8m9BXrrfD71zW4yhraRXH+WapdmZ3bmGL0dJuBhDFlgM3ajQ8aBBOuA+wMYycS3vRIS86N+12SvkLj1db6w3iQinwImFIsOqREQPHr2kGEcT3vHM+PKCzY5wL3heuIIJPP6g/e2yQ1DODAhF3AVagGkK9Ls3DIeP5kwDt5AuqKPBexnz3zLfwt0G3eSQIWLf52G59kMqcdV4DxbpU+r08xCdvyQBI4CTTSOUhXZucFPTtIiRxQ4nlAYgZ4aR6EMUwl693TAYGh+wxn1JKAm32sF/OvOkA5EfOF2stOJkePYQc5zHuSUSCfx8vmWzGav42WvGgdvRdv6YK8sLKx+g1WQco2aVxiYXoi9gEvUg8MXjdfBwRprf9olj7Aw8+k3LgcI2fELLXb8n+7sMh7z40RKP9ZRwvLb06TfieIlnkmY+AXe3MKYVvV1/yhUa31aRMFdD5NnpBqKuZhsIgXmqty4nScQmh9R+fVh/EFtce/lPIzHpbGjKikgs8DUv+CnA/4oVUOO39aPsff3MBNwaFiqcbZwFfxjtvtEhyGJmOwWcod22chfdfl1qHwdZ8n5GoidKzcfVF7GWawuBGW8mC3u+Xa2dyeRVXpk+kiATSN9QFTa48SVo+yQ5vCgBlIJoc96X1sLnaz7DwJKZ8JFPmeQT+nGN+L/0KdslfOeNliHrtj+zLQ/9qfx+7vdJaWhnIswtMccRuTS1aVsMLPikr4Fsrd9ejfnKTZ5Y/Yxz5PwFOSwWlaaK6Gf0kaoiBijo8MAEv6zu6ZMCCVwsPQWFTWmZpoQxT+2Q7s0V58cgXvnvxv+ZEnBQxNfC5VyR1/pOPQMw1NQPInPIRSEEiex+rfNsUrurUC6iCkHxp8iKgDE2Z/fhdHjhks0wGSi3Cg5Qv+BFg0cYN1YCYZCO1qx3dOElLyzL7A9D1/5TTzuixltkI1dEwyTnshyAq7fvCL/uG1Fe0aOvJ0Js+hFnweFoVZq6H7sZBVzYQaqjerCvCVIJNP4kX31Y54pOoguae+pX7mEjjTUeutCK03JZIi/8ZFBrDh/jmlfl8v8jvAotGjxXKxIwiR9mZhKVvjs40m+BIPW3WzSpOuLn3OQvg6diQIlIk7s0SIF5F24FHuLTGM/GiQYol06c/YlWwonAC77hAmZxEXs/y1QEyBy+WujosU7oi/BVm88UeTj0uHxYNfXc4+F6I+cQFsM4OWYqwpryC2n4GaXnbwu9LHm2hubAQafyVg9NDy5+XdMPClT7/UdeOTfp96gMZ0hzRHBFFlecWCbfeDT3uV7Ae/2diOlLbTymepiPCfSFK/lWd7afr49acVyu+NQdGG6Lu2jQ8aBBSeA+wM99yr7iQSTSzMZFvhCz85dH2qzdj90iOgQfZUgSqlN6qMubloq7JcoU4B4xYD9Lj9qOYB5h1EE8Lp0H7DGXuJmkVf4IoeECmdHsIQihYKnt65U1Wliwn4mEJkO8Y8YIXkX4Wyr191KCmB2kPCgLs70tUYHZYu3qA4cGSPaHRNOaNnd4GlKjkByI8K6HYELftSO7WO5fIUklBjmN5YriQl244c8WmY8yYUWMUeC5jT2tOhyzL5W91O5dge7ZouS9+CpDhFXYB57aF0XtpOCDPIjme6B78SSIP3n+58F0kQyoZijoJGg1OTgYsqANjbsj1oKZdDSYvIzIRd58ZON48QfqK5wI+dqDFfnEyTLdkbNVdbKIUm9scQZ326jmgI5Nfq9s/odzUCR0QQHLYoYw1pX0P/ldOW7ycstRA4fU3ha/ztYlr5YCUGe8VPosx9aZ0dAd5yWoBeIY+VFN4B+45dTmISWw6fbHy3y2m5fBr1i1DyEMVXPyHORufbTEVuHSiXj/NDnxwacFm729ktTZZqk+XrfYT5159OvtzgT/dlfYAeFZmwH3rpiBZfx77EP/Q9apQ+shNrvMzIZIuzYFYbV2HSzgSatcCzMVEHUCea+CvnzJflxYLT2LDfDfI2ZR39dDy+NtioV7zQ1MnPSo8nkE8B2JOUsslYmKPfs3vBd3carnT3Ig8CuWIbRF61nnbOWj2X7h2ftF+VkJu7eIcGqw3FcRuOWFurjROCH4YoUrUKsqp4y0Cur+tPhRnG22mH81Wmu8iWp1WK132FQFlj2tSLouTK3lRqQxlYhgpky8JuLMCvCNwEnXCBjnKHiyQJ8Yf9iqNVLFv7igjIDZsvmPk8FsborBNmaBIvDzE8x9GWc0oaO+Eb6empwBBBa2hE4bob0WmGJUfuAIC7KBBEdUlgekLWWRresdiSrYbzy/ztR0D0a+HKMO/89SHvTStgX9c7eHrxYZYPKuwWhL9zLEJrhWeqZLYQBPUAWWjc1CzyOYcndT/RlG8fXqz4E+SwawzYb3tERLkA02fHvkL0NCzITSjEo7vBRxkL6FjBreCFmAS78KcdQzQVDVSK1wHnTS3laOZJkSAzcta0NgmSp1ohN316w2bdDI//Dva7eSQ31CBOia6DP4++Zz8glHaZv/R/LqT7iIYOpcUSHbPlM/W7yhqM68MirBOwRMUNidRl0YvnIkKx/doE/vrNF9wSuUQoiP4y46Zwnd8xYx8s36Q901sJuowm9ioUPly7Wve4WISOlzOs/giMvxmyDji2jROuBBWOA+4P8T/0eftG+eg2JuAYdww6cPQkaRCm6sZdiR2G3VFkV2pGcPKz91etJyn8kWmmLOYvEVwMt/uOAwANQ5vyBNVQG17E5lIs8wG8+y23ITt6NhFMBYa5DIBV7FBPK/fitcaBQJ6QyIl3yOeZA5HQ7jAcdiDTSM1RaNZXnTqL/9zIo1QANoBAqMTtP8JNIaq6V4MDnQLIBD66bote25QRlA6+pyPCX4XM5LWbVGPPQuV2sr3ej77r8MFsbbX3/zsLzbX1LtaY6isOr9eH4u2zaf+Tt0Wo/kfzkrYFtPTcLn/aAzAI9fYafbw2zDN2Nt4IxTHLwue00YFH0PNJDaGfshXfxqUdmd7nU4NNI2xABBnfP7Yg+AAAAAjZNZT6Ym7ZZ0YPgkcw/OyMTlSqxKI8tUMUiu9zcjrSIP8S4poGW9uQucAN3aFmSKxeD7Pbh8VoRXy5MfVCCImHHuxbESj4UyHHpMpqEotBzxDS0NAEZ19X35WIvWAaPLqzdxyX2P4GjNkqiLNoETeqZTtXQTyTA+obzoOPxEcg0Yfemdjlkjr0C5ZaaxBYlDeiPs5KFnRMC/ljl3b/lpGN1NKJ1SJqtKPAobpsRr2cKSxAJNSzd4XeAeZfdxJmxwUsY6G4T9aIlsrEQiDfnC/jWz/IDGhTXzMX53MaHDOuh9Tmi1sK3uizafjoAvbbRcutYKF3KSiaKwY/LF7DVNGkwgKs71ZyAEE2l5f/1BH7Wo3yn3gTPppJWQtdn7Hs54Se0Mk/FTVMQNDXDDc1sigvwVt304hXL25rUBBFHwYHncrC+9wIEROxn+BqwqRO4dhGdn6NNxEqFCfpCQKbeQ7pXYZxcqUh+F0m6LhbITN825wANGSR48j2PBY6cS6eYr+Xz0GIqv6KfOgRZpQvZuCzylyWhCx+Q4quyMQR5KvNY+H2bzEOw7sCyrsE0/NCx59khRA8k7SDUnKPkIO1xjBDTkIU50LPrG3zw7MuL4SsrMTGmolYAyVa1i259nVEDGrnRZJYGugZorlo5PXBNbGtZB+8yNa34Nmbk7Aif3OpX02HFpumWFxeTt7WjvenqQDKz4io6F+D0dlNk+aEYQa90k63EyBzC74gskINNpNsr/XvGRqMWUoEi41kyOGhPapxZFnVxY7sxH04Ht8GJVg6Ex3gOK9HWFaHdQtyq3QJEl5RAJzJZ3SLnf+ZBb3vlxtA4IifIzCNSnEKJaNr8G87N2R8/lEnaEgBSzzT5XwK9ll7hE75yzRJol8MUEkG0NIN/0jqbuqmVCIsRs6NsdmTF1YKoDWsP6vu+TzUCoQ2OrDWgzLts6FHcIjHHi2XDRmzN2yeHvRk3UTq39YGc52VvEW1lrP/PxAaGzCPoAHngersSGJVhcS+sHWsEopLwi4Ykyb4LOUVZT3XxxKF5H/Ayt8MbzCL624SMEdjPl4SJKo/xMvwFQPVNsbfTlLulGBBPiY7PqU9fXSC29LYmkY8wQPgcpEVeviJvCyKIHFP+qL3mdzlWUBM03yrWTW3emks53YFfKkdRwd9rWZobIO2uotjwv8Dk/XSxhlMwhvoKrPcYe6GqcgR/ygf/ExWkbgkBdx8L5AHsMsxOxZKSdICFquwykPA9UYVszuqAmEo0LdQhWbfKU8mbUDCXE3p1z8o6IWt5hVgKyRllzLkI1qNDtIEFn4D7g/0P/A/cPPZESgNwldK1Aag9Tr0w7sYAiQmVuv/vlJUfGzjHgfuZTea3fAY4zcCKVtwUXcb8TZC+YUMdvRXRhgF76ocawMmL6KNiMULy+5BZBk90AfW7dhSBoqQCfpuNEsXtflEJD6/+ZH1eR2etBFXfvGsttomhQR0wb3+xgFinPgplRXym8aFuB8ZmoJea5wab+8BU4tBtIE0n/TA3TjzmUh4np8TcmP+QVszBAUfg4UeEvhwau9dtL8XGUWM28avLA3kWqq2lmmbRtJmYZtfjmrOLDhfmvO78FfqbC8IqBXbCicSUr85ZBRajeZJeldNkO4OMkOvrjPg5Pur7cOtceCOBLMWinfjIcaVuGSu1GWDGvsDm5dihAhLH7oSQDd6z3qrk2LalkcJONWeEv8lkZB1/bUdZhwV3CqrjPYCqwHMACmTWpDH2DHv1vzgsoRCdfFyMpou7qh9Kgwwj05RW8KWx3A2GF/uIEK1yjzcpLj/LZUaUGPIxLrS8DzwymgyF9nHkarGTOntxRQCk6VnrhXjdbj00zu9laWwDqPFEtwxiETVwReINAuC2NM+ZYPxwt1n6Srecx1K1h9wft9vIEa/LaM4kcbZjCP1J8VNuyXwtgMdVpaIZvM/2SA2Z8yBH1xzjjTzr4ljxVyNAuGW67HbJUX0CR5OqumogFLtl8pWppBgGdJhStVLN047PGzLTYoIjNCVNQFluaWIAi8XHU6yVX+aJZUpXeRhIPK91dvkVSuEr3filfmbzaniTb7cLi0oAyeRIBow+5sqzzOFzEbj/G3FlXiE2roYPMvC/JqjQ50XLhHy6EANZK5RBVqmS/ef9Qt1kHhDonqVbZD5NLYbLpR2peV9KeDp3VoGt14jMvsED7QasFppgo3M+GUNwPnSWlDTkNuzr3QyubA2RL+yACoSxPfq1vrQ47gLDTlB8T3vneyHrfEJAWOoi9Olq5tsKd87U8a6X8BOMCWk4RFEnzceEmZ1YhdoYHb3KYcrlGiDOu49zmVSV/8CDjk/RuPEszhD+BEIfbItHx1GXV58b5foV1olUwv1/5SIadTs2QXfQC4p/BptZGOLdvaG6yOsn+nWCBDMAfHd4+L/l1WxarEVKGpPK413rAk6baYS5TSJ1f598K4KWM8R3RQuFWtGZSvmFaODkVz7NX71aASS5ysjN7vdbKL682ncdfx8nelY7lLndYQ0L10TwMexa1RXhuBChfglxNpt77i2Tj2DBJ28t7i4NdXOmRQ==","2"
"","","","","","instructions","15","46364","0.0-7.0","ad0yx0p337tsa0o","conditionB","657","","[{""page_index"":0,""viewing_time"":656}]","","",""
"","","","","","image-button-response","16","48167","0.0-8.0","ad0yx0p337tsa0o","conditionB","null","","","[]","null",""
"","","","","","image-button-response","17","52668","0.0-9.0-0.0","ad0yx0p337tsa0o","conditionB","null","","","images/list_3/control_3/3_Billy_Crystal.png","null",""
"","","","","","image-button-response","18","55221","0.0-9.0-1.0","ad0yx0p337tsa0o","conditionB","2552","","","images/list_3/control_3/3_Billy_Crystal.png","0",""
"","","","","","image-button-response","19","57022","0.0-9.0-2.0","ad0yx0p337tsa0o","conditionB","null","","","[]","null",""
"","","","","","image-button-response","20","61525","0.0-9.0-0.1","ad0yx0p337tsa0o","conditionB","null","","","images/list_3/control_3/9_John_Legend.png","null",""
"","","","","","image-button-response","21","64227","0.0-9.0-1.1","ad0yx0p337tsa0o","conditionB","null","","","images/list_3/control_3/9_John_Legend.png","null",""
"","","","","","image-button-response","22","66028","0.0-9.0-2.1","ad0yx0p337tsa0o","conditionB","null","","","[]","null",""
"","","","","","image-button-response","23","70530","0.0-9.0-0.2","ad0yx0p337tsa0o","conditionB","null","","","images/list_3/control_3/1_Yoko_Ono.png","null",""
"","","","","","image-button-response","24","72904","0.0-9.0-1.2","ad0yx0p337tsa0o","conditionB","2373","","","images/list_3/control_3/1_Yoko_Ono.png","0",""
"","","","","","image-button-response","25","74706","0.0-9.0-2.2","ad0yx0p337tsa0o","conditionB","null","","","[]","null",""
"","","","","","image-button-response","26","79207","0.0-9.0-0.3","ad0yx0p337tsa0o","conditionB","null","","","images/list_3/control_3/7_Sharon_Stone.png","null",""
"","","","","","image-button-response","27","79843","0.0-9.0-1.3","ad0yx0p337tsa0o","conditionB","636","","","images/list_3/control_3/7_Sharon_Stone.png","1",""
"","","","","","image-button-response","28","81645","0.0-9.0-2.3","ad0yx0p337tsa0o","conditionB","null","","","[]","null",""
"","","","","","image-button-response","29","86146","0.0-9.0-0.4","ad0yx0p337tsa0o","conditionB","null","","","images/list_3/control_3/10_Jonah_Hill.png","null",""
"","","","","","image-button-response","30","88848","0.0-9.0-1.4","ad0yx0p337tsa0o","conditionB","null","","","images/list_3/control_3/10_Jonah_Hill.png","null",""
"","","","","","image-button-response","31","90650","0.0-9.0-2.4","ad0yx0p337tsa0o","conditionB","null","","","[]","null",""
"","","","","","image-button-response","32","95152","0.0-9.0-0.5","ad0yx0p337tsa0o","conditionB","null","","","images/list_3/control_3/5_Alec_Baldwin.png","null",""
"","","","","","image-button-response","33","96356","0.0-9.0-1.5","ad0yx0p337tsa0o","conditionB","1203","","","images/list_3/control_3/5_Alec_Baldwin.png","1",""
"","","","","","image-button-response","34","98158","0.0-9.0-2.5","ad0yx0p337tsa0o","conditionB","null","","","[]","null",""
"","","","","","image-button-response","35","102659","0.0-9.0-0.6","ad0yx0p337tsa0o","conditionB","null","","","images/list_3/control_3/11_Ariana_Grande.png","null",""
"","","","","","image-button-response","36","103928","0.0-9.0-1.6","ad0yx0p337tsa0o","conditionB","1268","","","images/list_3/control_3/11_Ariana_Grande.png","0",""
"","","","","","image-button-response","37","105730","0.0-9.0-2.6","ad0yx0p337tsa0o","conditionB","null","","","[]","null",""
"","","","","","image-button-response","38","110231","0.0-9.0-0.7","ad0yx0p337tsa0o","conditionB","null","","","images/list_3/control_3/6_Brad_Pitt.png","null",""
"","","","","","image-button-response","39","111092","0.0-9.0-1.7","ad0yx0p337tsa0o","conditionB","860","","","images/list_3/control_3/6_Brad_Pitt.png","1",""
"","","","","","image-button-response","40","112894","0.0-9.0-2.7","ad0yx0p337tsa0o","conditionB","null","","","[]","null",""
"","","","","","image-button-response","41","117395","0.0-9.0-0.8","ad0yx0p337tsa0o","conditionB","null","","","images/list_3/control_3/2_Ben_Kingsley.png","null",""
"","","","","","image-button-response","42","118456","0.0-9.0-1.8","ad0yx0p337tsa0o","conditionB","1060","","","images/list_3/control_3/2_Ben_Kingsley.png","0",""
"","","","","","image-button-response","43","120258","0.0-9.0-2.8","ad0yx0p337tsa0o","conditionB","null","","","[]","null",""
"","","","","","image-button-response","44","124759","0.0-9.0-0.9","ad0yx0p337tsa0o","conditionB","null","","","images/list_3/control_3/12_Greta_Thunberg.png","null",""
"","","","","","image-button-response","45","125553","0.0-9.0-1.9","ad0yx0p337tsa0o","conditionB","792","","","images/list_3/control_3/12_Greta_Thunberg.png","1",""
"","","","","","image-button-response","46","127353","0.0-9.0-2.9","ad0yx0p337tsa0o","conditionB","null","","","[]","null",""
"","","","","","image-button-response","47","131856","0.0-9.0-0.10","ad0yx0p337tsa0o","conditionB","null","","","images/list_3/control_3/4_Cyndi_Lauper.png","null",""
"","","","","","image-button-response","48","132548","0.0-9.0-1.10","ad0yx0p337tsa0o","conditionB","692","","","images/list_3/control_3/4_Cyndi_Lauper.png","0",""
"","","","","","image-button-response","49","134350","0.0-9.0-2.10","ad0yx0p337tsa0o","conditionB","null","","","[]","null",""
"","","","","","image-button-response","50","138852","0.0-9.0-0.11","ad0yx0p337tsa0o","conditionB","null","","","images/list_3/control_3/8_Tyra_Banks.png","null",""
"","","","","","image-button-response","51","139392","0.0-9.0-1.11","ad0yx0p337tsa0o","conditionB","539","","","images/list_3/control_3/8_Tyra_Banks.png","0",""
"","","","","","image-button-response","52","141194","0.0-9.0-2.11","ad0yx0p337tsa0o","conditionB","null","","","[]","null",""
"","","","","","html-audio-response","53","144369","0.0-10.0","ad0yx0p337tsa0o","conditionB","2026","","","<span style=""color: red; font-size: 24px""> NOW RECORDING </span>
        <p>Please say out loud the names of the celebrities you saw. The names can be said in any order.</p>","GkXfo59ChoEBQveBAULygQRC84EIQoKEd2VibUKHgQRChYECGFOAZwH/////////FUmpZpkq17GDD0JATYCGQ2hyb21lV0GGQ2hyb21lFlSua7+uvdeBAXPFh5YCyxL6MlGDgQKGhkFfT1BVU2Oik09wdXNIZWFkAQEAAIC7AAAAAADhjbWERzuAAJ+BAWJkgSAfQ7Z1Af/////////ngQCjRBiBAACA+4P9MvwKeX9d4r/RMllVM30zO+GD5KuRfY9h4RQNf7giAMsJ/g2oow9u+K7w1lSiRkiLl2b4S/05gdox+Ay3bvE1P7nC5Y4oyMl23B9vRzGYDFZX0cyGvhtdMXfH1c7FTCPCHO4daigGUfbDHKC5xFXi3WkmvGRByMuWibtwIOoZm5JkX8Rq7NmAYhRmiUTrECm5iJBVXUKnm5NJYgZK8YQPxgURmp2f8CfCpZjvUQiK4dr2x/RGwMmIv2tsI82RLyni0otFKJbgpegOqsnjVa3k/tCB+AAAAAAAAAAABfYnrJGVz+6Gv+bWdWHdQyZXKrUye8PcT168ggsGVB4jWnt7xQ2ZH2514FN0Uglul4lIOt/yrUpC2KY65TlmKCZX+yLd13zck543+fA5N+/b4hxrQrSvmlX6adjrGNSlg6iQhUrEEXt+klf6yHUnd9ZmlRrwTgSuWS+hxzvQTib80OKQ5WJkNIXnr6/XYpy/CUgNVIZJMOgUDx0mzn2iOCWSWTfn+T1/qcv/+emAtwdmeKfhv56fqIrsoRG4bDPzmZhk7h0raEB3JINZ/f/6vas4jqlMm2hj5NqCGJZYvKaWhMLRSckkbrrDq3cUGl5M/73LMRp/OdbS1igKItfbPImMONMbF74Y8mK0/oXmLMitst+HswDRcmLp4VzjRjwZ8SwUkconALEDIGBp+UNRaKEb+t8XoM1QfXtKE/HobNAzHZjtpIkGUluA4/aa5ndX0IeBIk12Pi3P9roBtPIf7SsKxxgoLGb/qZlq2/utsDVK0p2q2s0p9VgQmZnfOQ6aRrl8Au2+tBeskW4sKo8WHmQPprpZR2FhMwAgTazWILDsCEGNEAru5Cl2wJ1mO5x/GXTrWd6+5b7xMPhUY9SJ39LXXhy/qBFQ//SFDCX5TXAitQkzjvaNM3JnTelfv4LP0OVb+st+NwM03xdFyL7ZCnD1ZGyR6JL3Zh9TeBWBYOdASJqg8AmLAlATr1fJU3+bWEHfI+K4BQBnV/zcz88ZdJnx9q8gasQ8vzh5goIObnewSFLEdDv7WdKPwelwQN6YyI3nPUklGA+7h+VJ8I5DfBWMk04r+OM43uubkLgmRQBk1nlt2+vzanHdRKFE8inwlI02nY+/vwc7Pey/jJS4KK1iA3w1v46gYO4s1MwUcqVzS+RDqu/yg4x2upzOsl7liCNu0Iry1+SrY+twh0XGGBwR2p7gdnBc7UuisGt75CGiQR/+38YEDhU9EKC0q4OkP5QMaINKn4pP7uEvCQ9sYMTI+ZN3r5qQ1VoogZZikw22XEr0Nty6/XnMiqNFgbdfxW/iJPUFZAPNv7ikU4lIJis9uk3jHZgL8616Qs4Ivdj0M0eFoRqvkgdAXHiXA0MUARyGHMGKo0OAgQA7gPuD/gr8CzyuN97AXL7Pq7dW2J9yY9GO/04DPrHazd/YaXMHDDY6h2OkrNEdjExGGdZ3h0hm5U+TEG4qPXiaqkbaciOAqILrOFVtHCbl00qCKzlXBuqzM5eWmyBg1yrXjCUcqlC3IFn32DYPIyKcNl+6iz5797UGptnWGDCu/AKdDy2H4uOIMHtFWDambq0mgwNLR6k9slYL9iA8EEgdD1JBsHbGW+6pjSeyqUdsyunRK/M1RSLnpFiEdvw6KXG6rxJQqzRkV/Re8rSJOu1ch+DeuZzHPYp/2bx5wCwBxY/Pf+g3H+o6q/C40sn7IWOyN15vMyYeRIEEGnA+mm/Yk3q7/z0kr36BuTQ5caHOY21ye8cyTDTQ7B134Y4ZD7xCMHqrdE82lgnrBaVH7hwctqwuJyg6aUrsByApCgezRdNVww8NxDCoRzs4lcqVG6MKrMETkxlbRwuOdhIu0VsOJUe2F+Hk47GbBH6x1aM1db529A54+ILAV84LnjJ3Wm4Hd4+oIeBC/axUQ8FxDC7qCv4aPre8SaB3NmCZrvA00MH1NpvKjx4wbW745XorTd7WPQKOUyjehYUJalv2DgO8CJvJsYPjrnWnUQ2FSm5pFNo2BtIDW0ozBBwE2OmSjHkrcOMMxOBQ3yl8tHRAQXUsTytmSWn3bq/BsYyVGMHY+eAFNi3D0/tk1G42wy7oC0hhkAyuZ47BkSJ16aHPIjolX3eId8Vbokx6e/xCqBqrka4fqBijssSnpY8njN0OLvws2/fEs77m1wemXOkM3AqHBp7ZmFB4UTcb1+u5RpRkkpNTtYQSBQ8XMy69K6FSyd9s23S5GyUe2NMbFZ1HniipdbDhIcdnWk3AiXGzq8UEiVQ/h0JHt74EHTj6oDaLhqG4Y+Vs2rWKScutHpS51jovCEGADh1CMO4xPKAN2uXkROdiyYCkYkzKMLHZbZAizjygHe7rKLtrd3Fom5sP3W5IUhD/lA7wgknTbpQm4TA9VorhZy99hJ68pyCybcXsRkqKRPtuBIs5wfXKMF4oyfPNCqXkzCUS8/foi6wbRTDVMOu/lE91s19cH2m98xyXvKXf0Hm17bpO77rGH0GGoC4lxd7D2j+ywtoySQt2Srz6cispkWejt4ZsBKwyvUuHHLoxOL7U6kbMRN66q0Vm4TabhljvVNM3QhX/flrw9fmjQ8aBAHiA+4P8EPwRFBOmMdwIFGBvorx8Yv6rN1yjWCBZ/8Zyx1Da4SIZ5cgrq7oidpGVGbcwLM/lFR0MxHP+f6W5pXzw+ab00kWgM7BJIEA6Xq3WjXXBpnDEO74VO7mO4R30uz4+UKTLadNIu6F+cfFUASeJKN7xyrxMD/JHDlDSTgH7L9w0lvGipiz9DaJBKGkMLuevZMQV96Tm7O4sroTpLglFoMJ2A1dw5Vk88Rf4EhFcoWhlqeinhhLvpcGrFqBLKb68a3vSqsjKYFNr+Vyy6T3t9L5+ilD3PwWMLedtC+smkGxku4qlROECGxYCCnaKti/hEy59sEPInDZMTnJtEsxsKQm2FqAt+T9iKeE5wa65XhFQwf5f6/xuHu8N7joX7TzSu75+qMP9gaSWHUELKQ4auohmYNGuJpO2rl+n9Y8ltg4FlztJaZFuiyLDZD5ahZb8pALKJ4zfLD8WlApaUgmQ1CmsBSemy1q+wd0Re+TbhPMwuP6n/WdNvZXk+0fggKnw6TjkCw+343KRd1AbiEuizJib4e0p3EQNSraT450ZlifSNr2ouyV4i9rAA+75rH16q3KNQS0KhSy2qUsX1EPihqhh8rdsdDZ3gfRyrt+LA4zAZ+6crA/SDB2kZIf6f/ZAgodztvmzD5zTRUrr+4Jw0VHrdlIluKcaCrnR0S2jgMSPRgz+iJ8kwsqqt4/WHNKQNo9hU+uywJGg/x3TKYKEHl7Qi76IWJiGJxCLC5jz/cvxGsSwAf8ZFtlN3nwVYIjEpbKo49IifYr6U2XVbKCq0jpKt3MXP5iJsaotzQSaT6PGtg9/VS5S1g9/G3cd6eTWutHyxs/CcE4nYJca/cRtNZd+UpGs5yijpJModc24Ply+Mi/z4hUv+KmmW1n/tvmlvho5qiCFqej83RfSKLR8+IY68BL3xUS6iysXjQGbgBitYD5g9lLn8BbWkBufmyNwYkthquyp+zSAVoPfehib+mhPs9pE6d6uQylHNY87p3naaofeUcFvvNwGnf0VkESpq6PPGjoGFkka1Y30zSxFtLqnZJs/cPby3JOk/LDB5036SAnDX92k71qGs1W/3p1EMJ3tc4ZFv293L46tvhi9mJbKxF/1Epv/NniRbEchHZoVtg73+ExdcHD0Dz2Vsp83dtW1ZovG3+ne8Qd2Z6y15isf9d13inHJyzBxprVLP66NpeQsrhSo6IENWoR1L8SBPKIANYtQZRNCIwSPPprGG+s0ARCREVGqkg3NxnrukzFfB2jNHBRaTsdeslZu2HeWm2+jQ8aBALOA+wMUC63tqpHAO2Go0lqCfTupYHTvylivIFIM8/1Z1YHaAGCYJtMtpoCrJKld5Mfmw+Thrd4vJAwaB2lG40DGAKYE8WpxRCxYB3OV3RfNmajxjlObaZ9o1fUAHujNTUi4CeDVXM9UsxtGmTQQnSwLOX+bQVaIc1twgUKksUoeESk9R20ECyKCc6JcMSK9/MZuFon6MkmU8nH3vlN0UZN08ypUF6oeWu2bb1p0HhJh+IEzI/ilqMnfNh/CEmmDQ96YAJdEro36966DNWXJmPHbnUHM/07oNaBzx5hiANkemUbvPpiFpEgRbN+360amLiSf/t1/86CnSshCGoDH6whBBM1OfqG+mmAQ0eo1297Q1944Bmzej+zEry2Q5Y6b3+n+VB/q0aDWyX/JhN5NrKHBvOVPHldFLRiV1HCXImTWCo/HoRyaxU7xbnsni3P+N7+DvHC7ZcZhO9Tdro4dEUjN6QHTG9vpTQtIiFngULrHymmqawFKyZjFPF6wpgH1xxDILblP0jVjAoEVyNaAryfQsiIPRHVpqprU26AE+FeItKxLkxNpvmWlgR9qkODLSoREJWzL6Tp5uYRNv52qmJn7DL1KS0VJiTAD5KNaAJV45Gvs1mlcDxicqi5H8dRT77/f9sOSGTMyiaK7t7/BncbygIekLYqlJKOegJHuW/oTTyCpOiZMlT5Slk7Lmihktqg2elpAPnlRgpf3OJ3dG/fhoWhxKIYcXp3EWnZyklcJ5IuOY7fVHbhSFYtBXDl5Ltc/4DNwG/ntRnZmG4dwbfDTuX69N1AVdhIXsHTBiSSa7eXzpZv9zmtT+vDfrwoewWA3Z/xGGjmjdS21UqrgMm/2mvw5GHUuWLa25jY2O/w0RrRtlr/IXg3j/h+nPouDf1AomUlvYFwHaIIjWOL1Vr+sukFuwZ+SIeLmfbwFa5qmd+PDDA9Tz7eTuAOm7XT7iF4s752Ibe4EzwImNPZQcrPgfM8EyZ8m+8h5kI664m7O90C8fsG6gmhWgLzs78rDx3WtGXRgLEqC7SXigZMGhLmEfX9sKLJ5mlQaatf4KjPKzFPHVE5DP2dzNSM2kA/qALJCe6qYLOpqO6a+d2Y6ueHVw4jhSa8DSwC2V0I1xnNsst5poFC2uNssIUARSq/7FUb1UIyXyTuE4taa2K+NI61HTIgUfKlgH/t8ucrAADH/Rz6wUbGwbsahEuAY+6r0XqLcEEGx2kQEsSmlkYi4pDERN9mUP4zT1m+NiOwzz2Z9+oqMhIUD9yen01TwqhjPIMFvTVijQ8aBAPCA+wM9+1zhUz5F5MHm4evbJmNR0CAq1PAHmxszXRkaNN/5A/iA/pWlhpnMN/uub5KeQTcpCHWOL+74nmf/KSxh/IYdMnoLmxGyucJgKEfGCuVoqmqW5xgtCAfti2XAbl8hIBYvIrV0t8JnMxE6eT3tC7SxB8JXUi8lK9bzO7YzhL52QY5RK5NicDLGn8d0YBULYhJXrEM7IRfK5UZkGlEAmU6VcGZyy0F57BISeUYxaSBDzMZKk19g+0FiByHdVDL7WYtcbZTVtNFPYMKp7gVFhYeIgpWqs0RDmARAyDXk4ZnQBChgRjss8MG9NtSzU+NNIUMclwhSAcQFBb9SO6VRKkN2XFTsEAlYVXpUmkFDxFrAE+wa4kah+rT75AqqCAlN/wDeikQ3ycZ8IogyGmXdRzi2m4vLGAztqu6ndHSEUaFWsTwWhEil+KbiM8dQi7jSIy9k7V4lT0i5icCxqix0bHwNwh5oD1dwuqdzz0YhhdyRv/tqf9VmOIUEkGI7Vyz3fMZH8ZPOzy/9i5Tk0bvdDui8WYTGkTqotsFtIuwX1OY1CiWNwe19OrJGTwCQ49T//uc2HTfGJKrri7WRxbkkjaCd4f2MsiBevkhzNLEUNsLlZe8/RFeqSiBtOEf4FhaHXQ2IVAq7EOnGFVZo8iXBhIYo5GH7AtpRvBRLqzFyca3qrwonSj2RiN28bky7TAfpFxZmXQMUkmaBw3PZB2Ll4kUxYmxKDA1WTX5Q7dpWRhUW9mjk5mt4VCV0NYXkS64UI9rQXNEiqFa7QC7hbMpks0fHdGiWbAFY1Ef5neaJvmu9YH4VjkV0BDPWWLTqMGZnL6Gt5ZPHZ/2TzpTQ+d09wO3fPjMeH124LFRgSJ3bHxdDZ47bB4x+HCS09Y/CyU5BBzY4vHYMNX4IjTl7dlyCQHIKmDU23OW2nwxaVODNKuE1TzqTr82N9eLoPayZxq9NuyWLSfvvWkEhbO61NU8NKRv9EeSa+zMvfsyYWau1gqtgcZZmY3qlnFheYAhyq5MeMoFPJQzzShg6Kwb5dNfHZNKO4iFtDzuas0IAZjxu3q5H1lmJ+XpGXFFFEyaLgLHo00BzY5tPU3t2T6v7UFI6238Tal191SviL2fZe3kfDYEFzkKqQVPcfM4noKjHZnf8tWc5wi37ao6XX4iKrA60Vz5/W8OiTf4WYLJKXqC4lAQtkSLDe/zLsf0MtGma3zkoOZElfkWS/b/grbJ9UTmu74qYuagGWRQmPP5MzrEvW4SSbxmxo1QlmmJxtXTTThsiaG+jQ8aBASyA+wNSrtTkqb8VEwPnrzFDkNASNIuGkVk6ncVllYSc2C6460aXnEX9V6reRSKz0F4fxzHvXxTFLRp2/eWMcir/LYAEw5ZJfrQk8N/K3+SOBYUBNW4EVaoatD9kmB6gc5nV2ti6Q4haxcpbnvoOz1lzN8WYjVZR6BeFvnYYu/Norhg3HqyKj5vOTOKVTmWR/VoCdrj9F+RV+PiHm8rnZ4uSzVvAbmCQj1wqj0GnCIbd7iX3iQd3cKKxdAoRVOp2INwcr6MflYkUx3Jj8svTS4CbGRGZ8ygXXHw3QVS1endp21EMS3cZZLmr/Pw1xqXovH/avE10EFJPNYx1aJdpeHHu0sEri+ejw84vsUzxiIVBoeOccvjNLCDSVEApsjncjd5UqPHvBdgFflw29IlcSqW56Z7o5a3ofQt9Rl6uAC26+871rULUf5zWIkNp3qr6UQLsujuDdIDipThWGN4DPL+wZ4dHIf3uinbIm+Cw/teo0+lkl6b7XjWEcXebIMtWkSE3qPEMwDrTP+ebiqMMbMmIQgZtEwnf8WEqAvOaEKB8B96HfAXhaYJLHbNb0r48GjtHeog2x96jhlXoLtxVBcn31zc23VPryCm9q/JaKnxEe9lpQR+B+V3MMheyHLxWzjtu7MDVdQ9FYjyC+KtLeCc+fMyGR2otQW6KNpU8LW6k6c2nAnVTvncoWSkaDBLkpjfuNo8qDpIDDenv4L1BoveLYUezN4Vb2rApHhZWCdO6y8Jujwi3KWhuhcoH1cNIh3ragft9Lh2wfXfvmZc7EkxZuyu2O8RkjZ1ebSS2SMEwct+yGbVhXoJNB4tEwZAlf4ZabSguckRHS7pTn4WL6XHp3pWlE5/M3VTFvkb6clWqLl42U2X7FRUGC+scQRCwHgunxdFTk/HPe2Z226zT1J4sWxdqYAXB+mwfvaGP0umfTntEYVhtrm+POJSnKNz8YzODfQkQzU4UIrW1AtxnWn5C7mPs4HfBBMW1u820dS3gNPS/c521OYbKMfuNflskWqlLf8hDatU/UuMoEr1QIam78y+3DyUh91/WnI1Jh9CvSHo/aNUEnpYQYhFR31Jhqvu+/0EWwMLO1ASuiNGQXD+RN2cAnENZsKVzQeMxT9WZSD/EeLRLgHV0LqYzECI0c2sT4+to3BJl6eZqy8LNq87wolD8q5ll34VbwlS+cQ5Aj5lPg4rMqQh5ET67Gu0kkq30ePQ6TVz6PAxxFNYa+XDt8Jg0asYWuuBkcSCjo7HOHnYC2ss5OeJFrLOUHhJNZ91dThejQ8aBAWiA+wM7V5hL/IaiFq6e0v72yBceHhZN7L6hTEdVnMSbpKVM0yBadwYaDnN5hJDK6LIN0YS0ePCEvxLKgaI+iM9eDJxH4jApFRaEFqUotXGkAdXu1qeeQX8JK1PJEMO8HkQvSvd574ygkY6F9ngdR9WfM7PwXuql16jN2CmpN9CqN4Prrt+yN8JPJnCCKMUCI9c+eYz79MXBE1PrpZbWxZw3ypK+kgW4GvQ3/wHGjLBLdQyXkMcoIewdRZq21cin7EK9UP6S1pAFPpwdA4SVRptROMBe8nIgioQXYrzfJSvFFL/oX6GIOTjQdBw4KkEUL+uvrCLGi4gqkEctR/ameqQzGULz4xu+THJ4rluqIeC91WrqtVXZk154JbNJe/EGiKYYcv4AweJxJ/+u1cd/x+oe9yQPZKIPiT62wV/F1jPHaWom9TtxmcvvlfMSd7dTeE6fQI7By6Np+N1diuMlm8HIHb7ovFaxJgMknLqNHNrWl4A5mgcm2C1JVDjL+zcW58a9aj3TOCQ5/G06T19P40A+sMWFsS9FOpzcLA0YVBLRQZEPNl3Qj551QSxvPFBP+4SwdP0v6LWj9gwTHAOPwUHV2lz0LH3xjl5cWrhTDrSwONZX6VyUvJTLWz1NcheFEELhhS6YlLg/B99/SzbJ6j9I/JX65DiJNY7nrd6GKC7AGolt+qPTGj0YTuQ1NQpR7KU0yrYUtwBoPG/sXUK375M8rAgv51xIwGZjvvX2GwwKGv/hZCRIjIzneykxlBRQST6pLfl8J/WWqAURrMEvFMA2QciPyBa0+s0mCi8pE3C87wmcawi9U/D/CN8IA0Qc9d0U+xLj0mRzD8fG8OrwbwU2mi3tPqDc867Ev0DEMLOJmzWqlMWOYZmKaqRPh/RIrXrBYRGWOXh/nAJfspgpyY88xyhvuSj5+1d2d+COIkq1qTGOmX+rsN5ODPEYRxJ0YxdkLERP/jgB8hKwNbZ3qaHH2HHe7WdwvaB7khNrIUD16mg9xgFwCbScD1dsNUDPulUlN0w03RUFLldHTNZi/R9jXjaY7hPqBo2gO8I2WlbSOIiIrLoOi6wLEWhowGt0a+OQMhjeOe6WPWxyKzv/fMAUtYwUCNU5jmhlokHoZiHuAPnspeQZgX/yT2GqjNoPPt0NRj87+CSzDHDXTtrMfGnf2Knb5tYslFHIdUnVzGef0OJ0kIznVylF7JuHSOY22Sj/IbqstRcjdggWWKgntkXaa23uBmhzRXVqyV13gl9+N2H7ayxWRrr5MoBfhaNPsSTa2v6jQ8aBAaSA+wM8hvh1eohC10JxOmJca4Rpx7tqZhoLKFQC+HbpzuQ/TBXQqjWi1LovmEhZGrEFx4ZUBnZgv0ZGquhkYywc+1JHkfY7I5GJca+6RoHXucgpTUkMwLR2dizyfY7abOjC1414gnLpFFOdQmJMkMCnQ8raY8Q/ufNYHYKH0NzB/oRFOro78+493TlGaWdxf7eBzT+AVkfq9Xa/mUvXwDVj9nWNHzYg7UXQPhShD2Bb9CgR/bXvc+5yoDItNYKQ1SldtxMhc6JEhnb22Q5wEsBiinOZqsdUVvXr2kLIcvcMBt6iPBUwRoeYYU1PZt148wkoCDkh08G6wqLgCtoY3QvEVkZ53R+80h8POjbr2oLXh/WbVR3SG8eRfNC1jqiKyPAqHP7JOAnwVNxbQ++5sn2YgCVALGJXX/tu90aWQSOecoLTZRGXq+0cjUbjyaw9tiziv1dp+P/SpO0uT9fDLcBAdafZbD65tJ1Ug4suhgB089/sMUynJWumdYWo5Zs0REpJ8OmfqSHdWNLZeVzEEaEgIKwYmc5pI7tSw9oBuGsrqybYB9nZ8qCWQP5OpRo+synBbWZ20t2XXaSiHGnwsGl3twdiSsZxdjzWeNbhmfX9Q7+gm2JqgjsfbJo4mOrY59WzljjWqhWvmPQ0Y1JGD/h+hYbYm9BcN160hDLDZP/ymMvU6PHieqhTz/8cyTCRGp1vSvwuQTzsq1V77Msnr+p8FvdmRBC3iJ9qRT6NQp/s3WXNfnSI2L3VzXzLG8XvD7QCujKS7gOzgW4wos5KNWb5PF3iTLd8meRAIykQWAu+IDPOyzKIljZy42nwja8jPYuOJgKxXkLTrLZHvWS94IBWukyjO3aEv4+kry/MQ25r+9uwP9Gvmd17sf2ndEpo5bpJyFQZkTWZ0j91uZVR8WNeboTkEMYVnZ4g8Km8s3Iy9D9OpSioItcvfKQkOJzeSTyrwN6r2Y1BDdBkg10egxezuuzaMGEV54VQJ1WowFgSUm01rLmncwVwJR1OW0Sk4bix30QCYl/BNUGSd0Hi/jje4m7GgIItjSneWKnhh6jbEwSAeZwKCfgCFs4Y7163KlJS+mFQhuqc+TqNFUvA1hlgJ0zUsyTXq+/PWLLZ3Ot9WwbuVg299BnIBJPi9ry+EAE0z8tB45B8Fl6BqHlTWP5Y3JD8bq5IcKc9xRLNOM35QZdzNeKiFx7uDCCSik/rlnwejsFoTb2b/1QExmZ8QBqvsDo+2Nm7U4yINi6sW2J4NEwMUsEotkK3rizBOh6bWehlbeCjQ8aBAeCA+wM7S+vLhZwCZM3hGsYwANr9EwbUMeT3T3RkXWdUm6jFqY/Iadw5Y3YOkhqaG838MuhuE//zY9xoP6wfxZTbldkB7Xi93va2qjc7sRe3o7SYJpnkxhFEv7jXSgdFiLWxG0fqBQLWpVJWktkxUHinxFVGia+wXi+UC2gC5+rRrsfakVNpM1uWDD4jDWqRj1ZrgkwOFHkNT57emr0oNxnVfiX2w36ojfBQPxgIcnrQ+FdqE2MgqiiNl/pYCubDdUJnbPp52gr/TNC2u4gZ3hu9VIo4z3lgxqhuInRkRIdJl08mt/FvBd+XBtIk55wqf9Mhr/rFw6rTvvewFaxYypWcD8d3vI7Hd6ZdrduOrLVL8fzkP/VPiC/Lq08nJmgXbI+3DnwwJ9yfr7wjH3kT3A7pWXhVN4FL/WHSrd+ndFzLMfggb0GmkEIrXUrSFeQ9dypwjwhQVQcNgAyEd8gqow0QGChGhf1xkpqaBde+dLa+oPW8JIRtk0uKXSZkHFUAUUbzv9QgdxZWKTKCFZeyytvyYosgVxL9zlXjEWC1grIGHPA6JAOtsIyK3WhC+sVDTNXnSbgLOvV/EMWSeNmEuvSUOXAgVJ+3s6gJwB5EmBo7xU2qV79OEbklhbNOL8NqEJv7HQ1JISLFaS51GCo7bO8GDxuuvefCC0TDGltLd5RKkpwuHrdvCOeBiy0vJVQDvo5FFqaGNz9AZgeUF2NJouO0yNlBeU/7AbNGM+O/G+GoVYhqW7aMKNNE7ZF3p2fePHpda+KmoKjlxkasn9yT4G0UhOCtAeL/nxZxmHsoW85nGBCIVpOGHayj/z+Q2J6R4svjOgXFD/YxBc6PX6bRbWNt8LZLUq7U5g74bFrMd2y2d95Nkhf6EKCVLsXMHO62QdJQ7sA9GIUWRyX2W4H9gL0xBihV8g8+h+/8jmNZSO3DKyKfSKfUXE0jROCHrtS17qE2SHcYulvNjW/ozU9P2To6UcsYzfXO3R8VOG7ismnod2pNz874RbC6cJglDY6OK8yhnoJrXCky6C1YIqaSiKXUuzBKY2gjv6LdPIZDnneqINXwqopGhXA/2iFKg0V8Nzh8GwoQNCwSpUI9ohKH0Dpxlu63b/zynuHJSEDfHp2/pg9wnZLiA1tATxL/T0bcLYkj7FJrFVb/+3FWxeaX3z8mfirQiXjLVJavTtw+1dKzeDB1WhluS3J5EDSMjDftG9vyBDNxaASFGabgX+5qVpD92tale830ByFWv1N3D6JnvUiVEfq8xPAE7TJxmnA9K+1YyK+jQ8aBAhyA+wMUqXp6MQWN7Vh1VMo4GKkSRdfuV+fU7WuLf5nbolaFuE710k0yNo54t+kCEFDQiAQQv21R9CfWHbuwK+Xebj8PoWHVHIOGHTn4556jIRGJnY+GJgzDC2h9uGSSsYqDE+VACFdRecmWBCYPBBef/LK86EHyET3mZVG8xbeMAJ0QFWt0XOFsEdqAqVuhEWW+Fq16jC/bbSTExvoQDoX+vMWRYOQb1uCtaUw2Ab6YvVg6hn+pKpj4O8YJwwx+l+QP7See7oSt7iKECuOUdzDIe5PdEqO4skd1841hLysFf91hTwO5xRhVWEYMqMwNV3XhW1VLA8ysHzWxYRHIxYwDhyzHCGr1KoQH9ZLBhcgt3gOoOeYsIwyMj7OSQDxaeFYjdTAoT0uB620K7Gv+6CWlnFkLQBwMTKK+XU+y0lYtZN/dwj4Dzdy4hl5pzY3IbFU1gBATYWdvEO6NoswdOROFYhL7HIfaeLlSxS2WRR0HZ0gIfgqbeB1G5PkUj0wmVmYtpsGT/fn5QimasqCfIGo78s8vQmPZd0ZSn0XC6x2aeeByAVH6gOTGpkmYNEp71rt261fdS16Y3Q/spT+Bx5eWSZ2iGsboWOauYBF2Fn0C2glIeKz3a1JquR81P7ZmBHFYIZ5Br0ff1IRRszUp8vQ3Cm57MbPRXR+9WqerMUlQn92RybOcZah0i/zF3caqh81aShoy2uBFk3PyG57BZeLDOEKpA47pG4QJg0ing4fpXbgowIVKhFW5Eti2ES+vk/3ZneiJWLfDBvlipAhDFP+Bh/kodtdeTKW+XS9YvxaENMbpk9iv0QxdmE1VkTcCFp2bejKmQ06nJCcVgfXs8JgCVdZrO0l6zlV/wv5mCiIXoxYXa+5jEqAUPy8PU9XXtUk3nV4fJCH7sVlIOhAq+URnn3mn/x4XKwi2fcg0aV2jKRipfEfCbUL+KSl52qUM/hy60reJ+9qyuivnRjw7nmLKzEFexCKCghZRDbJYA2pycen9yfellcZ24OrPGoOJ4CRAFQYDsOiKbYyE6LP1wZ6PhoUp2zldz71TGPO67gQ7GRts7l+624ymG5TtFqPv3rFgcKGv7IOdG5FqF5rZKJU/Mbco3IaF9Uc0oooDTJ2P43NyTZ47AwhLmDaoEPDgNroXD8ctry3KB4uq0qZ1cw87rl3syZt5bOOGi54Fx/jaskBtjO7nCraoTE0t6U8SCdyM4p7cZq3KWTZso1FUm/X8s0fWH/6OPEf1Uv1HVSV6ZRqwiYAkZetUPd/fnvNPnd5thXOjQ8aBAliA+wMR5OH+HNEFFCjD+ypFCmIUhZBt1/SytF5lEox5ltjjiTX18s3CaXgm23y8KapT0Xv/1m9ZiBszD2d5lrJO7+h/3CDI+xIGbVQpSvIHpFlE8IkQkxqvWiLLDCFiamo+sYo8ANyO8PwZybcNwvK4tN7PcXvXBy1iwrBNzTJOnjLHq5vdPOhQDqov/dFV3O4hUxvhGvjdcGe2g14KsTto7mcs38guUdZ+O1A7YSNHnxeZIA83+uyFtZJZ1fCMBD8RddqXtzPpjO6AiZ+a5thrMp8+sUArMiPqDzuEsrbQKki0EVQhsrdkH9C0NQWbu6ScXRGQ5K7m7ir1rZJqJxr9mqzwpr7MGyBfXyhVEd/qhl6FoKXTK8cid6Aj1BPzjFZ2t1vSInLMfRkxcM36yi4nxOEBBnMcCNmpwYaoFDjDRWC/R0KfWEedkNytIZPyDm7/dbr8iF4WZHqT93d+eyHnbBrs+Vf2WDJQlhYNrLIWV6akdEA1m8/k1x01f29dR0COxhVxLbl0VOQ50ZLBvjXrZxjSlaETg6ciDh8WQ6siLYvFnLCnYiEOatMoECHY2Ciw1PRBm8Q2JG8yW6Eex5YoBzGr/K6pzxEEnMmhpzVsEPVuKd/xa1ZL2xVAzs1pf7670pB4hDvJF2tPsGgyKE/FSIicUeohJeI9BX2lQEJUUDLNxa2stB1dIgGzs80Nwcl4umrQZXEQLRANoiYH7EcqTH/9aCAdzfi5nPscqklTOD0ZxlqmuP9eAuEzKWmzFKWmMuUxb0hbYPeudajdKbQQoZC73mLVbSfyekJX/GGOv6zjV7V3S8ImgVPcJ1XFjtvvHaOm887MMA1F3Y2Gq4dE76nPQnEcCdUZEWxXu9o0+VWWNdAntkBs+5tNpUFEJ3n7xEtG3DDXnkkeCVC2QUWFQWudb1UfD/t6IujasiTQQslRRpQEIuza4dbHx1GKegLlH/CHJVUvLSsQ3ESMeYyDTtH4UXVdnnWD4FEGx4F5affc1uMXfMyrQ/78325qRR/lO0vHYBdz6/glf1mN43Ggqvw2Md91pHr1wsY7dVyMRgzZBdvbwKjdAUBa788iHLmBa3takXJTaDQdugL4s4de2QqHmyB6JZYyX0SfxkK4abQ5Y00r42zl4uDDF2er+vT4Tzp5GP3zRBaxeBOCNo4ZIHzlO2IL+dcUekDjDrSk+E/2IggeQ7om7LvxVnvcriVV5W0zGHvbSPgi7FVFJbEehQzDQnU2tU3UwK1JOP3J41/0KbGfiUWsUrakyzf4WJj0hcWjQ8aBApSA+wMZ6CDXM5u77prnFmI3o+Cv4+hS1grU8U8OWKmmDJ9s0F+5l7BiDjEX0A9+E2cWOGNLnFj/L9ZA7EvtUPVpzwW59Lnp+u6kclRIMjtuOruwxFWXzf176GyKwvHxW9khwfIupzVim9oQ6agLGb0uhYHdfx69e8TXhsRLjxOnrtM3EF9KZYeJE4GDBGo+kQCuPUblJ2r17gCpB+H+javUyGHgptS10crDpJTEi5i/0CMtBSgZ4WNBOSrhpDhmcPc4thOJ+qLGHq/NPwVD/1MO1FLFYURXQ+iNHFIQhfIXFOOcGFDGL9GMxl6f6+1kmA798n27TcGlhuN8zkvR2ACiv3yl4KOf+003Zmu0DuKdIKuUy+/DlbxZupxcGEO7pgR2ogZOW3XT0Uf86nj000FPwnzItmofjmr5n38blMvF97DQoUHknHRXVPbhtePfANjkcuSqL19yeuBMxbKdgiPJH0zR1dYMEl9cY3DzcQ/IqWvMoSix17w0KlxyVk1P5Ax6vd8g+l6cDvLFktWlQ79idK2+TOiddtm27/tSLD4L1qAcI4RDbOrd46LB5wl2amrxeUz2M528OAXwbY09wzB0fHMjYi2ve68UFmnKbiGoGQGxZ76009I3M6uuzGzQHFdyVS9DEluDGXHhr6T3PAp2S3F/KkLIunyoHfTmAmQZbrJWyTw1VQXXaykSObK1uN5du1dTl+y8rhqJR8B0wdovSGmDgKT5m9J8HDcRqXVpPoAdedo2VH3iTFv8QAIFzRWy8RTFqUVaDvffvYNJXjjkZ6ZtmugIlMalo0Lq43UA6ug1A4d7y22iXtFR4vP8Y0bw6Svk7W1zsvgTOmPAGzwz6fpDO1zB5Vvkhq7s0utd66gewJg2iXrGLO7F9tbKvfmwbC6wE1Xuu7FDV9FQ1jozkQDixS8ba1yfu4KpYjojl/9Fc2N3kLs2dXa6l/fi2FOeq6KMrz6WcZKU9c9AP/c+EVi02s+4OD1imkUiVxrZHajF+WNS2oCbAC94IAR7c/BzdxBzxjXgy9fL0JMb9wPoj0LwFqPhbizav1/viUwXijRzL9NtSAPVDrKRMKD8vPc8ek8dnI20bXB2mXwmUYpOxVr5Lf9GoLLDFadoPH3nMVohDubQ6avS42kxg4NWICqic5jQ6q6D15PrYBAH2H/TSHphiWdWm6HKxX9iix59YmcxUu99BYc78DMOi0efPTxQjIgyPsYuBFHe/ZU8R/hX1GRqpytUamtJobqUAZanX5Hh4szyr1ihtE0At8NS/8h32KmjQ8aBAs+A+wNCAO3u4gXv2rMrJMs2JWGltgOnAaq7Ko/DdnroNKxtpVp4JsYqPyOv64k22xOv/PfmUl1ezyseLwC7dPNeGwjk4I8F6iQ4o1RnA3yNUfq57dVndNAOyeelyKIp3maZRdaEOT9isTMGi3HrIeK+GCt8Hwd3S8bZsBJADSPGKLana2Siz5W7NmREacEm0fddj0tznZJDGFKZA18haXdAwflh2xi1JlbdhNFe60K3Wdoh+SgUpr3LB63zDlp6BNrlt9rK2GoiOX/1Kw5er0NVM8kkPhUxiaT3ok+3NagkhZxtdslKzhmpwg6V8TmSFIiQLH9geEz4huAj0QQjMp4oiPKber2bzj/QwXfORVKaCw+EMEPaZLhSZ92HbZk9K/RDCgZ1D8pb0HjiLrs0kqy5hiDCedgvNEZ01s6CXk43+LFkTBwChX2RWqSI7CK80rf6BbzcpdxZeqawdAQvWTBfl0mMXztowtTBEHA0S2ghBdVO32Hep13cVVArDs3LkePZF5RA9XL3eBe3kLJxyKj3Xj/vj2WnJNSFo5CahWxRsIqh73HTU1TheMct5b/uwuCloXqIRjyOQsCe68HA3dFlaNyuo+YwKatGW2K7lkYHK7SB76sLW8XYSb572mSTuNYDPWOYSe3M4+JLF9CdPFyyf4z2JRCD1m9ZQnSYIQYdrjUv+nXqdDu5YtsgXgpOH2AaGzrXUQL366N3GSowc3mpH8IV2ww7tiYFjgdbJ1D37OhxNEXFSq4wSuxwDF2xhRI8mtNa+6HdCI24SrArUm6SgwzNhBvKvw+h0swwZDx6adh/B5N1Kg5BuZ19ckpkNeDv20dZR7GEfkCZzsfpCdXctGhjE6DWmc4aA+PJ9eywvJRMolfiRuPMg/PMEyOIQtgF2JgPGsjdOs/8yTif11ef+ygmwf/ZItYuOPs++Sjow1HHkDLIITgg2RbIVRAVUZ6NrbcFPNzz7GO5ZWwJDWfpBtCHpcjS3Nl9J52yKCkSDzrvSzIAwtb9o13D0wLa8iFpDP2caceHEbfMDoQmhSlwLypy3EuA37mcS2+ywwK1NsXjwWsDu1NJxMI9/2N+56515rRZ4EgC9oyZtjnTKV98jttvvCbcJsxoeJ2+o/TaKzzVevrzUkgQ072cXTDEneG+/v/vtDxVol3Jer9gJWMe3MNyIH52BhGE0yIXg6495DyyMaSZF+A735nR5NOVdf+FMGDjrO9GM6fIWOZoMPRv+s6Zph2eC0K+pLgC+EJ5UexGhz16SrvNb1lxx3rlXFrtKYCjQ8aBAwuA+wNSnr9RlQl4kAXjenEL/ChM9BWFApwCCMIvGGSrcWb2jOhQE2D5ZUpUBBLBECX2etWIHSE93poQLX46oLe7cvHZvImB5hNZdXlZMhc7JkgXMucv/ahEg3tVGuDP+f0u7TmtBcF8pGAwJgzcIypLpjBhf879jAzpClN1/c+CYgojiLHXua40kfEXzxiccaojLLZIcLCZIm/65hWlsQRPFZhpSf5fbTasLAHhWaoQIceCBevWT5e5Zu0WdalO6RVaAPr8ayA/Cg9TivN6sRlv1Hd8oMBsewhJ0+b01A4ZBM08hfB3n9yyQYew2JbAd0eALQrovIjeJp5W/otB1j5nmJBckHu9PMQumpc69N3HcuU1rC9vdVwgO99xBqEYvZzkmacZx/ezmmZQYwszVF2ULc4jJQTYPfYENt+0vvPiy+kbn+xUbYHm3ImcN4TonHAzp10+8bSYdlf9248KrO3/cABCnmKcGiTc4Y6NdOmCX8Az2ijh7PHbmwbeRZi0R//L4iAZcC0bYObiV5ndjWDedcTpJx0oiwtKwyOVOkzHlfShqVs8ggGZKFN3bfIFXWj2U5nmKcGxNdy5vt9AF+ex+nXpgbrSdzxiMPAv2gdWfZzhkiXfufJzvP5y6UPDid0z3MbRYHc/NStAZ8nS21AzB15UFWrvKYunegdlJZfMsH5ccjBnrTXtj9wJZlGaQFMq3d6jYK8171RNtTWY281ROS3ESqpVMYq2NAYtj8oFdNvmsKky1P30X9j6eIPomyuoOf8Ob0DrMA13uPvAgU0E2V0Yrj+hHYQwiA58o2ywmYd8ynhSdzKCXTxwSGJnYCQCwlvTqilQjI3+1QoGMfF3SKPJFRaCS49dfFXZqNAM7A1jLcfuGsNw1Pq2n2FGT960l17YzOjjjeIqJZer0N5FaHiSV5JHTVYJCgwzQVh91gb6UyUDKlH5SNrEPUC2YF3cbU2VUziYCTjoA4wrRODPkJf8N8HC042LTYvOfnmEpiVatVhbBILKldFcj4EIU8alWaQtdHA9EO7IV+gVILVlTdW2lStMaMe0sQUjRhvfnKw+IY260hVOgzzizKsF1aExY60WqdMvlJ35G555/aJgU1vJ/jiTDz0AOmahZChNqdhcgf2vmoptyHonbozRDN27TesGJ/+gmcLtoqQcHUyYJgILIYNWubCgUo+De7O10cW97Xb/Jf442ju7z0D0SSR/guTb8kMsGG9sD4KKMR4mz6kRtR8YPNTtCFLtrlb9ZRdTxPoXay2Y4xi9Qufpws80AOujQ8aBA0iA+wM7WKfGNUEaKH1wJ2w51WBj7UAg7xcPsQcEZTTDngGj8eAe3BENUjLUusfhDGGs6t10bIR8xMaQhjQT71mfk6PD13B+gKUvvuizAvDzQmX4t8hKwqql3F1V1hMzlJ7Z/crbdl/ElOJkwwsfGqpv+7XgcLWUTBWyyRwkT7/3M7G3Zizge1Ai8GsLHyBA+kstxW6fdP7grrxOjJOs8ZC/Dk2q5YZg5IM2h4cKjnd4lfAT/k0WaRmtwVKllrDdpx63Qhpep7Z4s3qwT2kcioW5zV4OxxXQmG1iXR+PG5/lU08dbwdwPDjadlEDC7x9aQeh/AGCszgQDsRUbwhA8JXVgkPj0XpF2N/2yuupXclFmT1fIzv5OvVpDOgO7J8xPVSc0IRc/TvYWyCGaWLzRTnHq6Y2Bjd4VegKolGHqvugoVpnEEJvfKz5dAC86V9CIgHEbVyKBXmj/FRHdBfO+2jTj7/sypQ7ur58b/KyVdXFR6A5afie63dfWGWPlf4e5ih+VpmOPwl5vaQV7l1FIB4rxAIWwhiqrmJzjkpJCOZ9s/VRwQcW5QWG4vQc0U98MH/YSABaSCRVlC2TYwdqypSQGwHqxmy0lGS1wWHvlpiUCeQfgTpI+PHLU/Ls3eM5FHx3ouwW2jPIXTvsxD3oB6nMr7FTypHt0oRbfQfUfOix+YdmWgcMj6qkpL5rqBYOqBlt4ThbcqG8PajMlQCyJJ0QyzjzHtthd4Xb+myPbUW67XVStCiMmbflV2vp5EB3Ml7VEHSnycfPFbx69i6DMQBonjaD+sP7AU7Y0aCS3zqoYNeCJhJTLM3VVG8Rr79si9f0j+R1F9CoU8HFcMTCVav+qc3UE8E4Y85t9TpnsQ2edpTVePr1iumhvNPEiBW+Tv06Xw9qPyxxL/rKmU5VULQMthowP+PZhgX2jngCp3BvHF9AI0TPMlHpM5pSSWw4NS0T8Sfr0QFCWnmEoQ/ScogONA/XHDVn67/eCrtq3e2CaXp+r95Vkciwbe/jZZ5DgEvV+8kGkQTXvBQZkQVM6DyR7u8CUUMzaNOz+eFXXfxxqGfAbTRMWqmDoSQ6LUk8uqwXc1UZazsBCBdLRHlQbr0o8GtjWd/mPVXcVl0uWVq2wJUVeuF6rGK7AygGDiE2zza5bldxE1fywDq7Q+s6o8vBvvNscnBmMIyajpBiLSCmwWVJI5TunW+jzQE6mDLlgx7gN7oV4/R4SVE5A+3EhnzysgjgxBSPCFPwbAKMqOMGdDBloFgphoYrhb/Ppp9PE/HrGRSjQ8aBA4OA+wNB50Btf5cTjyGD9SKD2XufJ1/I7Nx/1xq0yYRo9TphZ9PAXF7D0VYkqlEXZTwxIVPtZrQmd22VUE+g26hJs0Kyawtkg/7Vr0tdhAprM8fjNJxT3/fcf75kSSn0RwQeckMHoudl2lGZ8pe/ZxfomSG85F90Bu9T8UTGrqgrtEbjCnmnimg2umJsumdzv97lHmKXf0+QlTc7MvLhOFy/k6DWXRI/vlnq+TPINAFp5r3b7lIrmXSzOhlEdat8ZprCi1IVNlWce7ArTCimfHsIxNEmdo3myT9qT9xxztXHRCQ2q3gjRB5yRXp7Tv2N025vmXcPREJDgIkBwJGahJgjWnvI2OQstW8WukU/m3GCyDWrf+MVSlstqZXKzurmEg60d/3K44nMstG9glp3g6o5VCwdAWW6A6hGj1/LGwuIk+K7RTtYlpPicfVF/2qU+VENhV0uck4VWIq11jHrM3t9MnD7YUQq4uJ8b8YoAPZmqAI/gxDwxyyskt81YQjTYw/se/TLB2cfqCJmtlo733aq25kYwR1Sqw/ECmrlYX3tnewxTA3RyWTBXUrirOE0rN6LU2YOKZCTFxpuLuSZ7u1s0kJ5xjQdBaQ9GLvKEMgkSx5dz56ccNcsHktj1zD3F9EvsJAGTxL0b7Nv1pEg6DH6fyHC0sy7CnwHsH+B9+anwAYs9R9Cu4q8UZESgLHk+iw478vAw0gsyGBzDVdv/jKkOfhxbomrkkb8Bh1QtRUau1mXlM8iOiWMK5GdnJCE/AhOfnwuhUgqJBLolUNNQlPTDQz5Y9WYODzqxLecdGAT+hEx3zZGw6eJUGtaCL0kX0o/h2hJITaRsgw+X7lhaKkTAgvrO1icquuq9+fYClflr9AgVxDWpwkJ00a8m3//qvf079+2FT+Gh4Hqv3B8p8yi0qviksVwrmwzXGe9F59zuodA5I7g0yH2+v0IYrPDiz1H25hTGGNhGO2fAkmRm3gIaTvfVuEJ1+LkxqSkJPeR0Vpdiv+sGI0C1WVNbB0idmq9l8W3C/5qlvNzcgxtFBU5Ex3wugI5zwJSr50SFwBOOK9b5mURXUQ0BYKaeoxB10n1SpXZGRIksQ8QCe/deQy3M3AqJbbbpruHdwF8+bEkONpAUeSqEEpiRDY072CXTpKTky4UjWZzEtjEml7YhqOEyCF5+jakEBjzV26kATjAn450gd556YwQ+QqFgofKwOCoBEaxcO3vQDiE1YirpGvI/Q0mh3dEwozVzeKbuOxP8CX5Cmbfe5AP8s/el7LpEaZqZTSjQ8aBA7+A+wNSsdxlq9ynzSirW4WYbO6/ptzEzSzSdkLMaSDLyn43akT/2faLxYcnOD5LjGIFpCfUGNabO19YzbhqPe2oMFULHbdOtpY/5pdEzjgu5AcKnouHzkb8Gu5+R/6EXQAUb7GFRkuQBAP1KRVmlaWLCruyLoajIKX3V6+4DunbHiVIvHKJZOdrl15/CyY9XzVVKD61nXLAHYWHFednsv5MJ5HH4Iv+jmsZV2ta/tycl5gY6wHwU5Qtx03j2VuZHXiaTT3aiDux+vk5IVtGCOs/xDYCbQP3+C3xv/kpg+hBJtEjCxzi5Aclo/fbtI8T/yXH4XOJ+cCp7eYcyuD0abDPi55uo171zWPgWzqWIfS4HkNzGZ9mhkKPAHS6fh6hel/GrB2s2NAOBN+YOCp15+oyI0dUTYdKp93SHV7QhSxgjW+Fvw2Ayifg9TQ2LCejf0VDl2Ztg2VaWh2WDcLf+nWjRIe8b0F+Ws+pdHruSURi3zDbUf3O0Imdl5pKbJZgFrVxn15eHgn/QeENfljAA6IDOfuLPY8wDFfqy2AW70kGIMbrrV+riTcjSS7T1B6PW6rVSKA42hP8uHCpUjDAg6/k+0R+Irs9m/ecMryLOkV2mxV1MIQmB6oVlLASpEYQPujQSTIoSc9cK5qhKmkPg+KKKoJCcFhjkRmlKu512rjlOaoR++tX3y9TjpiBkFRH/YyWkhuySWv80z5a35gChGzjNyuWnT3Q2az4lob62pa2EnJcx7Gfs1cl+pMHBD5FEPftUbGMl9fnrGXWfhTUFl0YeURVFeNF43xeFJa9nzMsnRojDhDcLehWwKWC5RrCPhv0oitX4Dsz1cfQYnWSSZAQncM6PIYSlptneInZRPL6+GjLX3UI+QlPnBfIRHriFjaoVYXTxo+SKQUeQ6DxvOU6DMoqUh8Sr50xTdADgCw3/DblwZpRPQhPn2ig6qk0kfJr+76oEe6icHlRRHFA9fQdSxBkDcgVXEsbW91o0nvGDYIdrpQxqktlQkHOiB7wh6w7n3U91VGCopbdv6CKTPiqC61BDNoTFISkXxdbfh0YI4NtA5r822yfw8lZiRdrTyL2hI0PZgZcxXqOfFcVu5ANas/A/BuZv1Kmwn0kmq44RzCnFRqftRPHKtcRR7YT04Mn6CyiJ5R50gsufwf2WnL9GMmMT1f5iRvTNgkXDCnbiEiaOYgxnBlBtr0/PRcJYKVjpts3R6k09YP0qZd3AcabOyh8wZD+k8Gv+FHW1F44bCJD7Ixs79c/nc3Nx9zQ/7OGB7CjQ8aBA/yA+wM7c6hkmLt/Z0ayuklVbXgHK1MY0emqWFbeoq8lQqscN5hFm358ynGJr3XHEV8nU09FPJCEZ0PKcksigOGwtDbnc6Bsnak9IvF4o50nKUxmSbtLsB+H2wDhhYTS/dmSOhIrDBJAYR3ZV3RCeVDq6ZMA3vmXxptM33eLFt+KoA4IlgqONc4J46q/cEgrv4w5fXAWCaegH7HZ8Mnb4JV/2oX3Ck10E6ORSUBYhvXqIZWMB/JDYHVcMZ3nbf3co9YiFXWV6bdIkOpk6m+4ua4W4mZsnLwz4ojgojgTclu/5420Zhb/6yOP41OTeg32+AbBBh5mUPrUBLKmXwKQ65vYH5bK6sZbo16vBA+MSzvciyxUnrN3TF/hfFB/4969KtJXs3YEKn7x6FBEvHS7obGujlv/lFn0RRSlJeGPs4RFQIuzNBhR331cVaeDnuiGPHntPIQqRGbhJca4T7vZGL2Ftl7odmKjzt7nP/ADIk/Ccbt5a0rKcJ3rAlMAYRfqBHxS9VOrUB2EEO4Su/w4yJzZIddWEkFx+WdJRYc6yfWYk9/0ICIWtGcyxgkCKy70vcW3BqJjX4RLeHZjvhTDRXVvo4oc27XecoQ1e2ouGk+wdcDkgA88xD5VMzeJY4iqqrNrnE7t77LiOpJmQR81mr/dXqr3KcPB4rGk8GSEE3Ruz/P/OlRK2CApK4rpTXsPO7M43U+FcaoeLpolNGnO7IfYxekDB9aMt9HMBBhBAchiImY86T0AGN/5aORt8H2TOFj6lLqcORNUckBJknHK+ttApP738SnjbaLQhJBoIa7Q+mhbBVlj0uER/xx6I8UrxYjNt56eBxnlJU5g7niiOmMIU2/y2k+TIFb/WoZLIPIcuGkRq8XDki+qMNptj8Nq73jZZVV9gW6tXu96Yc7lSx5GSt2wfxpsnNm2eR4iHHxGLDjairkCFcvTW6OcRsEPKkNScWb64g6PkYIQJZlIE4IjdWcQxQ+daGXm2H2c2LgYtcP8faZ7qV/eTi4+teE+0SYlUibZA30E9DAnSwSDLZ7yFXCY3UpWXGBWY1ZmRptPsRY0VUzrZVNHp5S/At2fetoV/l2YlYpeMonKwMy+o8yiJ438xgPT80BfAvqXBey4hAmtBwnknLvOdpl4WUmlAclglwWWdhSGOPz4wRzoUedVnPvsSvtzPZH7SECWDGlIjCxDG1/PDDCY9pfoaay/y0LkcIaOwSaakmKftO5euQbwG6Zt2OJkXKcJEmXTFcfnUsAc8Xm+ZQ+98pa59vFnUfwYqe2jQ8aBBDeA+wPafssCYmQKhz7xgdZYne2o0Xv4mnA+Gp+hn+khcWlbhx0RhrA5TkxzNahp0Gh9aVNKVxgj0qkZj8YDli9K/8S+Yj2bRx8x0XpFRNApcFzuwnHIvAg0FfRjRa2LQGvcBaoR4xxd6VzrsuE42S9DHGSXz0IPePg3rRNJdWmW2r3DT8D/vFJlBXKuupQ0eCaCLfcli+B/kRkG1DKQgpg5HfZ72Ex3PLaff131y1dp+0O+E5YmN8b4ofZDRfw3c7M4QJ62f2x/hmUhcoFm/JqfpIibntUXhGnroLD/yPHr8yu+Cifo27dc/6agBTSOJvukdjBHOEYdbwypY4MA1s7K3lP16sjlpilqbMNLScaqU7OceQUISc04hlSn4kzUrIcXA47EwFvEqhwjCRyxt9QYldcHif2vIZ2rbTv7s6U1h6HJ7RhA8BZ2coAXjczM9UXrJpfjS53cFOHBm03tve/gtauipI6aYDycZwnmoOkWV1Fvug0qm9NKifHD56k3nZzehtNfe4YtEkDsRD5xj7DlOmW2VxoDA7uzSIUnMmbZdzsquJE0jbebjbbEIFSG/iE6OyW+zckeWESFwuNViWv0ER6XNzoNCSTT6Ar3sFeI5ZMDzdY8Jy5ol+Re1ojm0fZwlxzavZYdgUb4F+LWTUmvpUyqSaZA8oNLmD+kXraO15XLlEumJeW/StnSeNDlZVQ5SxHrZvHdwAS9UU2lw/xA8ZayCueY18ybziDwt33wrqxRnWCzim1Sc9i4reSfza1r6LeC3D26GFPqSZSWG8/xDzPEsQvpU1TgMN3PC2OUJ4hI/9sw2zFMwjZJC9xLwuo4F9xqILqoAcCzfsNP3tAj1c0pUp5k02oFAGhGpjAkp/iCbQky0ZQZzyLZC7SJszYbQkFC4cqHqbJnIbfQHxSAxJ0zGrW/c/Z6DAux962oCC8nPCCr8aXzBbFLQr84pn01VTv0GPmUB0iaUv+CT+aEq+39UVKXnzyZjwKAtyiujQNP5tv5A9WiTwK62RIcEIppruP2FVjpbKaFyai/QDD5xuWbaYVLp9/BQKeJLKmBpuBmUCfu5PF/LL8CnfFemRnftk5Qw46Q9LD4+qOdmFm3Lrw1pp62n4VgWYIifIfCzGbZRHyPaJj/nNt4Ru61ovDZJi+f1GPOZVsEfTQYF1f+R/xJs4O4RPCCChYkmXQn4lfinUz6UxuFTfAeFhynOq5hznkPSYbenLBuAGwOv0uh4ZxCLf3T71Mj6IsKHxAYaNxKsUYoEQ4sZVxgqKJNiK/mm+ejQ8aBBHSA+wMUEB5F6Ny8DD6cdO2Cg4MI3OhpKM5WAsmoWYhapyw7l8pqtuUTFSxDZuU2ZBoMrXC5J351jg+0JGjYLPelhqac9sMKhN/IOypqBcCf1YYUly+hANLYFp/vekIpW+hIPw8rKifw+TV+++0M3LsZqeP/+O8x7HyTgBBc3E+D9fQVHrzugwW/W0QxOQU4tmSaA/uhkukwkpImQ54NB5IQHUKvZyW8Qrc8JdyQjTfdJOwC+P42yjgcR9o2S74GO7q/jan9A3WnKTxjabnZY4VTK/TRQyKxVxTJq2FpB8ZseqfjRW1e5T+WolDpCJJVsdjxYA9eZj8FK247XBgRdLg3kcHz3qjPToX5lTNkLMZCER2ZMxUzN9jFavsi3MZxBvS66KZoQlhxCeXRQ5/P3EwfOSC9qn7o1kcsGPDEcPHXEaEnUztdEb53yYR2KyVrEDPprg6jnOkmmsteomffJVorbKTtKmDAYpj4UVKi3IJZfQlNuXFtVGIZyKE9DBNIxRjSEfrS16zXLPm+mVWJuw+uRBr7JFI3IJ5+mHOpC+s10bcntYw143ktOx/sIy4hdl1MhwKSGwxq8qzFfAK2rHwi/q8R9yJjvfqvo7CSbB/W7+V6sF3Qlx+BcoyPAaCZQ3y/nEgka7rEceQEfak2ITGAUPMPtDtdjlPfG0UUn4Rw4UmfKmtA7YgUqdBoV2+wj6iJKJc6kl1wOF9JBEOZMbWzk0U/V0IYymTqh4JtB5yXPRYpi+bxRSZ/3lVARLWrWUys4SEdtuuDutG71EVd+pg5wRPr7kwjG+VymBwE1QPGBt5+R29ZGgTQoAQanGhZqfZPLOI4YtkMzE4HX7wkgi2G0UU4GdrybKWDRSrmT7oKgXKoWl7/UTshGctzou9jzUph3mTeqhgilaXg6Nf0EWGQpJFfuGAk10N6hFUd9VApmUVymLGbkKGAXL3gc6famVa16c53aOwSxyfacP0CPVDIMP0IB1n2GamaDzKAataSD3+/dwOiiZbzGhFop08R39Bu+mhfuX+dLE2zCW9GAwEVXewmt7Hsr+PMNK7ik8YOOKjphFKGISo4yGj1iJPau4Q75zoCOvR1m8xaLQAOqpxXGg3CekFO4/r0qRHM5k3J/hTGjpsH/1QIfys9REst6zcT4giLK35JRsX8fn8q2fxL5TPsbIvB9WiSHEV4QjYIcMRBGmbcqdKzByQGqkcq8lbqvR4bAKJ+mylx3VyCcaF360BjZ7rqPkaOrSlv2+uauBSP7zXarrFIh/5PqhFxXpGd4bmjQ8aBBLCA+wM8O1/eXkvvI5afSF5V+UfO8xor0EDVrMYgFAQCUL2aWYdR02aN6Z5fkpH9KjAJSVT7FzGldobJBxw4NLPQ+ibywh+/1IRLUV0GiuH9OrShZ77w2o9evdi8q42xxfgUYUMCmgspXtiGYk6hbYcabXu5KOXR6gOW68Cli7td6767SCc0TPOkDZOR07PGK/1OlfrowSzqKQmmXouBq3AYMe8hn4JZUj1Utnl+a0gTlWMdD1w8DggNYyD/eJaoNjBe9rigvMj350ZHI0ErQ9Zu5HW3y3R4QU3arvffQDlql3cGOkpbJqIr4eq/tVLNvA75azDXPWHSsSV/vYotC1EFOrosk8+1xw+o/1KGAkAhn5UzrKIty4m6SO4c94pJoPhOTeoORwl45zHPHNNa318dfvLk2dSDMFTZ8fDTfuvoxkIdthvSY1i/6egMPSJAvZkCesTztDvmU3mK/KUJ4xgF5fgY89YIjdz5o2RnF7avvmPGgOrdD9pNJcl7h+GTZZAkFq4mn5IYzNaqwaARUrpcPL6V+gSze1vYzsgu2TtWKFqEvKQwVkw9EuGO6FQUACpwH8qeK4Mee+2JjthF+TiOvnRDNPS6Y/S4ZTHT2a/30zUKsR8lhURstApCR9ws/BSP9Oj9A4VJcg8YX7gknAVl2RnLKUjZJAoeZgVolkMT8qM1PSOsAHKcGfCZz/bVyhveJFe9pEqT8hefsalublpd5dWe2LuYMutq2ohFDg1Wa4ADi04EAeejyS6rfz4AljIQRUZJp0+CAP7Jcei6+/MzsuxSMkHxmRQmdjQ2iLjelfvSRP0uKDe+6T6Z3CZXCvKgB7IR3kAV+ZMNfd7NxX0KgqJ+U3X1UYEgV4L6QP5LKPA2wE/xJa6vllrVyCpaQtLYN31jbzy4fDllORUBFc0JswZ7PK1W710JNRF7fKLA6PXhJUx321frFFBKUGpVXl8jMeusMokFeAakL4T+bs3Bfby5L+HM9KYeSwexbpXPdPtMWcsCB9JFu0JJLJoTza3+2bs/2ycibWUpJoF1sI1xRoMi1IfZYFkCZMpuNcGl4cTAnK1SjOi9aTTB/ZEnJuqcACFsXuMtp8YtcYncCQwo1gGNDosVwpqvsaPSHkPYetHsMI03btzpYncRld0kEnqfqK4Jcsbe2TEXvw2O9ts1g63TokMc316BjrJWT9GXV2gwo5KT9zh4m6NyimFSR50L6+eg2zXDFw2FDcZ5wAuFWZL2QONxRgo6mWNKGj/aAi44mPglkD8GgSfPttST2ot5SmyjQ8aBBOyA+wMcMD3YjmHrPC0L5KOx6SBcQR7jwzenvDQvjiMHgBgOBt0a2HpwDiEqzy3QdWHc3ngyjUGWklu0Wb2W21Pi1gL5EMBXGyeq8Nfog1mY+HhoQecdbgzS2VjukGlBL/d6hmj4UrooYBGs2m+4bKhY/RPgDu7nu+bkpzdYwFX1OuDVuCz8B2kgnzVSn5MLNAk6F3SFukz0kUS+5keV+/4SAb1OEdv03hCXyQ3BvJALGMa4PzqzV4oQ4RAa5AThbvAxlPxUazU7sQ0sPZMqCZdrXZmoxmw6mUvg0lQQklCqiHJ/nKcDAitvTYQq8m25xg7x0/MsP/Tghc7nSu3aI5ObKpuKcrTiY/uf0AFQvVtnx/w9CX0vzmdllVrjFMJCl5EDCn+myNIJElLsB9AEqIMbK17PDZrp7azAS2+6YWsJG+3SVEJ/ayLzzLbyG+AlIaCcUIMHmcfwNhyttOFLCP8iCfr+PJ8+irB71fqzN4ta7MhvNu47o598QhOaZpTw92Yig7yauijVCAdPhl3/oh+dLHF5bUHHg34FCervUt1rfBOO9UlzNvOPlWnNUQDhHmR+CdCUi2lZZhCdvmBBzTlZfLf4OOFy7+cOg5mey6pjuT1dS7KfZ/9ll17zSk2LqB8I87abAuI8J9J/j+vZ1nuP2Ugvp66/wgdzqKjDIhHVggrQaTYSX+12jAC0QhEep+LfkmXkr9E8sVd9kKKRpxVsE7dl/SkxDlmdlwuRmaFiH97wqDS3dfKYYNi9pJoqmhrZaxJxqF7tYCEa1MSI3R0BI0BXxBeDpXAaKX14KRM16UoJ15EG79WVyjk+TExBtPwnm0cx8g4jPOrRxUkm1ln96S+LE/NemYC/atXWUMFKKftE9f31GSLJ5TJkFXWJPMymPJzbJOjdVcIjTASV3f3v0BhxVGbPW8L+7cm12WdilNWIymKmLfoxK4smY5nmK7tKCoNr5QHc7vELS3VqJSPGNtzCsmYnfiA4Qxy46i1OusTz6D/IsKv8n+2csRFRLC/wiN/U0Yqf99jGf7R9o+zIsnDMZ99OywJ96utSgdG+IJ3SP883e7yh0m7eN0bFxDAUgXsBYCc6WYY40CfbzKT2hLE9EGfRE9OitZsiodqlfwNf60FQzh5J6HPI4LJ1cyzWIteLJx8/nVsDAq6CQdavd8Hbpld5agTBSxQ38zaOWI5y6CHAuRatwptr9MjI1WwGqqT4CplU+xXdaDfNB/sYVXZ4ttm0m/GyGig/dobeOnm30uA19u+r7dOfRyoQF9rTyUWjQ8aBBSiA+wM9gvJhB+zQdsocAkeTjVcbn2oxVhPCtqJlpzJ/pD80d+a5xSLlnKcLhREOa6wBXORl7lVXGBpS96fLm7P55/K7kCENsnJvcH8MPlpFbuuqRRQWCNHjc4VZtvfJoKl8NAQCG+1LHMyq4T0doXkYV5mVYigYHfTTixIHeWlj8kaDLbgb2gyBPz4zhC7gK5HRsNCBKoYEcnlrKtT79WLepjVEcj5g6D+Kh7IfEUfgTVRykQ5O/zvDFxN/wdPrjh9cEu+d0hSY07R3wzLuveZYrizJg1sTyM1QXGTA2Bb3i5GQiksw8u6vDEbHYerb2pWHpknmi/r0KsiVpAkBn5IgmzsTedn0yVJ5wK/LesV7jrv45CePsQ0pAhvll/zMmjsak94u6WGU7TBbD6pyXH4pf3CIy6RHD7uFc1/G4veGHMZpMUHkCZt9glWwTU3PdISQMQt8FIcxpnHkUsJMUybh6+NVvGVySvvOzmWGi/sVT50Bh9Pmk46wXsVlzZd7A+E74LYRWMKC75HJ3Bzrmk5oIrcUfttcFbgzIdTfkRx0jwofmycaZsCG35S/6fKAAZLQbpKyfj+weOQzJlZsbeq3ip/A3ROZHcdPRvc0B9XHGga2nZ5RN2l9LuxX4lrFZvkuFD2VbBLM/tYVYmdT5gn30woAjYbfUeI9vu/QfczBM7UKW2BLpHpz1KmEOqCg5d3+cqLB384twGA2ZwtHtpStsqjolyyCWvrAyiyHzr01htV4U7IZRkKhtcXIqPkGMvraNE0kDL4x3csAXNG2POaAVcnYl67RlaD1r5Qxkbw7Ntgzh9c2ZQkreNzp8+toivIwESwPu8upnEjDgajEGK26xWbKO1eXRV2CEUnZY8lL+kwk7O2N2nm5yZQ14rCJRTG0O5jivuwLh4dprNf1zk/ETaXbito8d9OhOQxJKRLaLvPhzYuooA6PstvRCLQ2pF8k7XwYxUgxAikAR/dL3eJcHwijEXtwgVZqbG3DhCyibTpm/lIuEIhvvXzOniGA/18+CSo1xSi+kdTp36K2GRXHWPrTB5YDvJKceOeiR8mPM+KD4bB9420Q6qg32jOVUjZVlhwuMyKkzQ9ENB/ePsQKkRnzCikX5H3IyId4Vxwc0nbbQFJHBFIlo0AGYYzce5BpuQgSOOVA+q0STCRU8AaiK1JPRyAedx7PgxieQlmJnAbD2XsUcy0m/04x63/BA69ZtmDSlkg8s8w7x0ZMp0cyPTvLKgzOfsJnH1apRITB7hR9Lhv1D6qcRc9Rt9H7ox8yraijQ8aBBWOA+wMcAxOKyCGxA7Y3/qzj0iTLAA64Y5omx3ICmCHsJ+TnNMs4lkSY7ewrusqAS4uOp00IYH8x7OF08FruxrQQshid30GzavAykStph1OBFQqVrm4nacg9pCyvrwPpPZQgP7hsr2BgePh1vPbG8Z/eejl2T5LLTCsj8zP6VnuBNzGoRlUIg5MMlZpgzciPs+2vBIUT7rcG3WOTwJ4l1BVomMhTjp7MdVngPTE2NKDtumXWCE+QWoycZdVeJwuay/LjO2YXCKeDA49ECBBWlowMs1jwNLcClLTQCy7TjOqrXnL8FieW4DZx3De5XljVbStOczY9RjhzNaVzAatX9WbxXdPPAFFsPjGpz7btLnSzc7q5i7MIfpAVuaEkBzINJpEyKvtoQEQqzNzUmULVH+PPbm2nwaZMr7jbCL8EVrPFmdY0ljt9EbA4d1wSgYn1yCeMf4dpXiBga2IZARoljvbwhlToJnhd+ot3ANxNHf4d0RVv8K5tn048guItPxUPj4DM9guZOW7cJuQHL09fVNcCwj4MJ2NIpLNvSySwLeDfuPN+yiSbhPs9wqSvGFsZFjHDrkejHCuVDozB44ng3Qbh0iBe6GI97gwi8J7daGoALyvqyZiJzLIufR7LVPbDf6J61rbexfp8olR+RZDNowt8yI9z97h2A/Jx1H3AaLwNcyb62HDfyBaEp5MHKSp1nQ09kOSIHAX6vp5UQ/Ju4SKrvubNEbeuTXTYvy3Vre3nv+AGPhRFiBTL/Ar5FNC4FFCgpOdk0oRU0ADgp3kxfHAu2clQiZQjaLkvLVD+UsecbRvPPf2UrZkUgxc8h4eaYm0fyNTRN5lJHbbm4yeEaABseR3+PgSDt+mv7MnCbGPM2bFQCRN1R3shl+Bkq426jUmQyw7P3ZBK6VbQpeDxEQT45aV56WDxInqCbi+BSZ+L4CEeK4z2on5KN5JzeaI7yIWCKT8pSl9vvJkVmARe9VHg79YvlHN8u81xrKZst0vBK+TmD4RRWvS/rE0RJuOw67+tjmfi5Pr+9gU7ma5L808Twcr1AsQghEamngQThXWOG/FpVnC9zpuZ6x48C9mDAfn3TooG8F0n+J8xQjuXkWP5seC3OR5AWQ3osXruwJj7QOjwFPJmEPMHj33xayxBCMkzM6mKpo8MtMol3E62Ql1MTw1q4JoX+wXGW/giOa3muYR9R/nyJ3FptLKjxsp3bPWRNK+OvtL6vWBVP6fvhpLR+cLGyl56GBy17ccZHBidYba+IhomRKOV/AFzG5CReGTBJiSjQ8aBBZ+A+wNBiIpOToC+IoDr6+ZB0KdoOrZA0gnJMNShqwheozuPwOmCsgjoKLaV+qdf8GnN8ArMkD5+xMl3VQQFBU70ZdflnuEFSqlZT1zN0m0jmCjuZnqQVbKVsmKxAdU+XUGiynm4gLWlArVp0QHW7XEGYNRqrEW2OGv6dqWT/b02G+A4eEpsvzmF3++dAzdAZsEX+oaJr07FLh1Zfe+agaCk9okPkAcLxxZ2iaC/vLQAak0LMUGhPUVBzKYnD1cVMjQSuNnHxvWFR290AS3OK7agUmdVihYiiEHbwQ/kZuRmVSggRgDJQjH7UJPduryiIuwmyEzjj0uAdR2SCRLhq3iZzweb3xrupgUMgGn5Mxrqc4nBbv3UGbd1H7Psk2lzPZxr2b458P3AsYHyfXZBXaTfBuWNdRIxrS5VZ8ZV0VI/ZQ2gDjvQBf9ScpwR/5SOH3NfD4OlDe09OVuoq8tJGGER/KmKjmFUkcYi05Cbq3P3XmvwVFftUbSHWAiNXfu2Dt0M479GJ6lG64/6Tx05XTk8ckNJM026YxPirEKSEkRNaZiYkyQL3MNNmLtScOQubfqU4tZonu4X6yuzwfW4xRSQ+DDyHqzn64OU68ra1VnpkAQ7JII6rDJbVWjlMX2UpTkGMESN84g7QQ4UM2MNsYSBJteIhO4SRMRebtXonSLpycGzJFZEYMQZy5wQnJxTT8TnKCr46PVdqSCm8FELkT1HN0P8GQWbZKkibXbf+qugH8IJtQzG0MGinsErQdjq+jVVikU1nMpjLeaiit1DotpS+moGXDALNoHvBUlgCxaPzR2oLN5JgGQ6US/XUevOT8cqiUcwFILqnXYfOmc9rSQLqoV9O0u8awmRw0TkLbqUkisXkdB4T4ixluEzJO7dG8lqvDFsLQy6Dr79qPLCNx+6vdrOpXYI2WFN3t38FyDsTAOz5H9MmHm19zS+1ynAZ67PMi2C7WJ2kSELbEIY56/V1Q7x7yD9d/GN/PQJ9QKa/Uf20nBjUOlIqMnLoWPJs6VSqYnkBKtzZmk8iHHak8fZK3mvyGuuJDtJJInZcO34uWhD5J8oEggmAABLQXldpEKQckZSje8aKMSLMpL+d/DVx+48oYvgs9uvPnOfamYIDHA03j51zMD0pw4NX49x/pJmlsb9K3SiXJ9HH5JoSvfARdYu1MEb+ZT83WW2PNoU2IbIQ8fZt35ju48Btoe+6B8vtzZ1wKZYDkyh9+eV0QtPD1Vnpg9rMCo6BEKUYlv3MU2mCwDCG5ULJYHutK8TPaDdIjmjQ8aBBduA+wM7hLPE0bdxiXIolSoqMru9g4hq1eRSIWt19vP5YutiZZw2cvX6AtDPOxESal/hbDv84rWQGnBXQa6cVtvqmk+DjWCGI1f7/KmG7BDtbuaFaCGlPaGcwHbJtVkIPugY4WsJjT4BTg32cUKnbwiuSGEL57BwU8X8/en5waK7NugOi+s2UnbHU4ngqMuQX9TBmjXPXn4uTYjWYZfJelpk1icpf7+DiaPRgten5JOnKpjdhgyWDFxZwdqne53p1Og8FykCJrk2UupHr0k2CfJ6fljKwVcBlKAn0uv8deF0o66cJV03vk9xq8vxL2mKKXpkHbivn8BFZeHNKzV3BACQwsIjZvgWo8nTEw91WuGeifX138HbSZ7OlC9sFhpwh3e3ZVmxuIYvSYRH5TBUs6dqNFmNyZaZP1vvR9+1wdXj20BdehEKWAy+sOOI31lXq3NpdeB9loLLWoavmYuE3y/iGoi6mNjeI7FzESBwnFs7gPxbGh3CUv/R8SIJBB83VetIIWsmQ/H92gRnRX68aBFgRr94So3x6ucH/2F69hgx08AXqTOm9RKD0betNCNiTM7DTFXCLBQk1BxDq6DATvsinc8ecmg59pgfBM1L1RmKbik9CNRuG+sOcw64hkp2jkPZiQjwZHXS862DLAJ53s3Ao+Cd2rtd4c5jIQ2pXFYo7FdIOrQ+AGIB7spFHuAUS/VWIRuGwAoun/zdG/jnh6jLvMnC3ibLElBaTQgpeTIHDxagPeY5wv0VNf6Cl571VCvfvF+O/o3H1/hSOsCILsNYF780IhykwyqJKQrcuWnuknkeSikJvUbUdRDpipiTPdREhi0X+I2z9m1PvydiJ8i3lODUFD0n+51JRuEkiuhNb4VHqNQO02Qbzsrv2dynnFRl7Uxd1zCaKwYs4nmeKdmT46ua5jeaBfsxFgjmeJ4KzZISICssIiTyfbdJv8wS16FmFpPoW3QqG7FHj/5OZaEj8WKfKLYq1N1LhrcsqjpTGE1Iu7cjVzBMtaGI0PKxW5iiwl2jTqxBS+ku5+TW4wb8dH2Vv2Dxt9NkgJb/BKi2mfMNgmjxVcbvAHZKBRsvCRlPK+rGkdFLklWuKhcvqyu3y2HdLcHg9w3UehU59ZXo5f6MJFv3tOH7RCz6l/uWRaDTHDsqFkBjunpYjAKJtmJlj6bH3/97n4+VEWvIUbb9aZsPtm/+CMlOMbpR9VYaE89IdlwKs+qgvYfHfiYaK4g4vesYtqLC7/75c6fsAogId7gbWdMQ5XcC5bc+HYYChC5GlvyjQ8aBBheA+wMR7A8yv/PaWRxXyFknOeCz4ETJAngPQCvzmVGg9GzlSnZe+3KMcUO7CRzG9MIVhhATDTXOQS2a4BJVX2ouc4Q7omSicgBmuH3j4acuqO8mCjJX7lzTlwcPHvZ1wDq0K/IAYUVmWswyNngEEPM+5sjqMAkzr04CrTt1OrLKpZTDYZ1BzeQvIKxA+gfeGfQnbkEiMMGLZ/RsrzyYJBWfGBmJzVEB2M7B4/7aFXVUqy1qJTr5Xkca7VIS7g+zQNNnC/AiTw3JZr+x7acJG2zxdV/LQbfFMeakSrtqXv3jBUuJjItf4Lum5iIHgAZMeMVhRP91Zxu27XzZXJiUn8L+eZXgzxabx4zglp/UXDn4hK67IVkeWuXbjIEYrjFFo2S183+zfK+gPX6euYrKRq7GbdQws/7YjnG09gsoYWcURZLP7xuPARDKBKfM1afkhPNaN70rgAfB/azeuukG7frVZoubExRXMYRCTo6UmLaRtmxTg/mhQTDl2g081w9hZPr/2SPkedY3imL6KlYrGD94ZTgtk1zjgYydgT1dM5en9vLo1LUPSl3VfhiPDj2+BY4E/4ABtsniKSohwwQ8BCNgaUt6MDh1mIn74JaZtOH0IbOseyVZejbr8ub+wL3dOmpdrw9EXJqI4TteVlhO05qvZID5b6TwViEway8k9kUzmVnTuonh7VHnjLT/RH93wnzDLmDPmBpMaFNU2s9M7qMW8joUZB2lZSQkcq3HThPFEfRWTO7FUeGiH0ihlBuY6sybZfZR+U4B4KatKeiypL9ewzVRFqBxwxKEel24Nioidi4NEYKxtkRyN2yC6XPJCw2fYlh3Pa5jvxRFPtp82gRpcRVZO3jO2xY3c+m0+mf/Fo9Jd4bLVGDHQFJXgkxlQnYT/0CR9Q9vpxHC71yX7iQUmnBrF15VmqmUkt/D+IZV6Xz38VBFBoX/WC/v3yVTFIGmReZ2oq0oB8tlHmWn80iwf/XOghDSRmJCbBTsu+9xMEajEZCXnCNJFoauvc/CgsQYPhvT9QRoudx5rFpmVQsUZ3CsHM+478MT7W2XMy3/hkQ9f3QOpogXD1RXdbj9IK444NlWrmiUEuOJ2IH4Nev/jt2FvvBfBFaiCLdxTenJdYkVcpwEbFqq2U6hb6h/Y4JW791MaLhidUeZC4R0vJ2D6GUXFus4qB9lc8XJ0GdxnTs/soRwBmtrydgOVLGcVQNoO3IvTOB6gc7VVetmiLWHX0Fra4Q21ZEGOdhAl+goV3ki0j47gCofqse9T+kHvGgqXTWjQ8aBBlOA+wMR1B+l8sILembaV8jH+8tYA2SjNRApg6AXuOiGAcP723vFS1KO8RUiR+QxsNiXeYxtbICx1Zh6dMFrQse2I73hgTDzbN62ICglu2jzFptS+NdEzVp1VXI32xx8z1+EM72pFJLuv/P83YvOR9L99IZSoa4gYmGpJDLYtkFCROtx8WnmJVT+onGaNRhSNjfsgwmqjEY6D4mHR2LnX2It+k1dpEW8Seh/yGcVlT9CarbCPtIHBPF8t7hqRgJkgv2UmoTk/APF3rU0V0MPFzQes+pT69V4Sh9YMIzF7NqVb02IzAR4UiEsn07WVuvtHFnChMSDNwQpN829Zorl4hzDx9JN1Rw+1goxyPUHYlxvqEEDr1TCl0rmV36mZEM2STQyKM+milPDdUgLRckRIRIUQzOkSqnwBtcmHPPW5oGYZKAcgjxv6ZJ0eVgsSll1atT6htECwHKARsBPw+MjekuXEbzBlBsr0omQ2J7yZo3t/ip1fXLg2g0xYT05+sKpxSUzGQx1DWXZx2wMT9KuSP+mxCi/RhLZT2oqIzux0PMXgi1R9iGqOzjYDP29JwHSkepFHwiXxumk0xE5oMv4k/ImP4YamLIMxoWAN6KbjNcUXT5jeEgPIJ5kADWgNAq+JN/xUdIpc9iELNSPplR/6X01fQAry+pQLBImwjjG095LG4xVAGiWrhGg2omfbVPkO0oxG47LHwnWwjUfz398tWs2cx4xk3somTsfe9ROG68L2TFOFYmyewrjArIM+d1LU/AyVHwXlsm5IcwFS+4LxB6GqMGiXsgliRou7ZZEy8SuOPAzKIPyBl0x+Hrpbv+ZHAUkrzeuGc7z7LEIPre7+mh4BoC4GhA1QYPs0Brvfd7A87MI8RTGJKT9sJleYVn27ta3tZlRfCERd/9N4j6oulpfLW2cmvG5Cm3xhgILvYnOP/I4IUkHBKl3pKHmPdUHXrzl5vkDxkp7yoBsX2oXpVGMX158gwBOz1iLjIig+ygkqsSgDb+AXco554tcH9YkEM1G7sobaSc10fr0uKxhlX0kprHMz9iqXlhFggsJVIJ7AklO57AnQUAKBCBster3maFpo6/SNsBYOGlSz5ngIJ1bbaoyJ7vEUgdUtepu9yNlUs0qM6z0kgQ3zLtsVElbvnVBYB6k7JfIAZfDVpAlZ3q1jg3riwMSv+g+WInG4rNmBZE18gwwpCNlCZqhRZeaYWpEENwpc/9eNaxcglTUv2Hl7tXLfx4vv6YeOzJWx6fjI1epqC1Ts5+kX7XhbkRwwzXRsXqjQ8aBBo+A+wNCdHWCR73kRJfxEsfKyxP5hnXG4pdUkaJm8aJr1GYkVjOhmX4b0tyjGLlkAJ+qr4WTPltqWzj0IiwnZs7YhMDDRJyqQz9SovItT2ZKUvMOO2RbOj0wJo90Frfj6ClOL34s26b0J4wy4ThGwtP7/T6IDWRa56T2xmfftZaccn5QD6TM+YITewMvYnriUcOd5ZD87bB/KHtbQhq7nl8+Ah0iw0x5Bi+cAHTXDxD7KjizZLojaRWeZX4qk0Q2qY+IXbrZX8h4GDTT6IporROLHcjjde1tZFLwWNgiuafu0K3h23ySy8dwATuLNOmmkEa8pwJc3XFVh9du5Dj1U0bdHj1sSQXS8R2+tYn9RZmVHp4BMdj3D5P0FazxNAQzoNYUfqOujM2+sT+JaJsWbfjgUda9BXo4CqotUnB1QSHXb2ntihjpXV3YAroWOu2TTajcWueBqWetCBlEHTtvkCFwC1gANorWxLiZQcT4bYzp+L7lsWV0IQlDf5JkR5xOWGSdM5siEeFkwXCF6oaZzHZJPxyi/YiIKzOX/KSQqDBYgG7mpglfj7CsIMW3UcGDxArg8IkUBSwSVrBzWvuvLFjgNzrcaPWY5UOooWE2JoIGgV2b8qgjVvq63EQkp+mrfkprDy7V8ctVUdaGsioP6baBr+xHKfLAPTU1C6j4L4tvPjy6nIXs/idNHHwGaDkxUY6Zl9djiw4FONhaNSNbt5/v8r6Z6JBXDD269Vtca5DRqz6KMizjXoJtA30MCjF4rR9P0i/gGc7NqOC+LrB2hZITVaSO92lbeuBLy4dYWqz/J2Lhs6zv0Vf5iGPhmq6aqXpyJvY+shGiEurjz+agXGsJOgI7U3N3ZL5L9+LqdH9NxMZ+hjfGLaD84fVf2XpH9BjcjTQ0SWcLyvQCYplGuy03/AV4FrdShIJVeQnQwG0wc1zr0L1VIdNysgbsiS/W7qkF7R4pbi8TdDuIuVgyOhf5C6rWFURxjtCQ/iKdaX5AGSHippqYbB7mjAAbdDr8tE+R4ZAlaZCxaYDC63RMJW2jmFVlGeBm/BMvCKM8yATIDIpOGTA3WJFzpkWphz0r7K3IFeSI/USQElIqpbmwy4NhE1IYeJcyqhMu/WXN/hgqTQOaQeBMlB5rUR+5fomW7DKe7Z7i29eZA9qMqdz6Rz/BgUK7OIVdmlVJ3enC7EORB2NbpNKRgWJAru3TmdEVTr6I6KM+jHR2WCtBgWAlV5nv8IY6w3nItnjwLpDa93fZ/DbTM/PuI79vLKXvpsiKTwBK5OSjQ8aBBsyA+wMYPueNilsgJhXuiQk4c6OOZ+vVDuCx4/k6rskMi1p7WFpxooqBbVBPmB5YwYmqcKGDlMMPW/pXU9WNODgrxKxHgnDI02bTnT2SLbVmy2oQXDsl9kFmsbAJuD/Fn4Op9rFrcWE57ZA962Pd8a1QtZcjfw34WzW+4qJqcpuwPZnnv4d4kpyE1WYiPcj1D1e9BOp0ZCg/X2hhbwb5q1c0gPmioJEik0kdEoFGkEqf4HuVH6p1FA0lloncvwBoyMxsGJDkf0Bb137HTSgG7kS8pGZ1crcKN2pE2qeOFZBuZzyoFV/XqzUaGN5KNfSKnUX61OXNAglmoj4oe/Q38+5On6pSjiaPwoW4QQ0UJUd718UsQ1erJ/P7t0Nm4Bwx9r1FO9eZN1H8pn9TMOe8S0O6Ea7fEczXqTXEPuKm8j4pPTHfYBDfU7B0hrQOisEC9v8eyFFgGW5RTWwBXZ6Edo9Vvc+V9rJHOWutBZxZc9bxkcq1zQGgRcS7pYywzgXOqwS4rxQ4QM9ROyhTf3ReCqOzDNGfLbYo24lN3Sux8mkmttumK4yjSbFakEGnd4mb0WBD3OOFicID2s+qD8Ybuu0Isf0hjh5JSyrjVIbqdKZTtEf1iTyuJgcK4ydghc9HWJmbrZdRUxFXSOE0BiLgxLNJ3fxKktz0WxtWfV7adAOHZUZKrZJW5npFd5iemSnUJfw24D6wTsEl3xq+89DxgSowWffQh44AbP6O5/6l5nmtyZXqi7v+3MMbZ3qidn7bsRkJGZMCe+ZBw1RQTHnNLAMSWYicsOdPUuPWS/3DYtF5xu20mcVDhD8lnPpdzqmc7EjfAzSQIrefojNaCx/InxuWeSJiPEeijEjjOujRyIRXJ6OzZJ2jr1/xjvXWYyTo1Ol3L9WWkJoqzvEdUPcqhCaiYw2KBtZUlZWwz1R7P8TTrnnvNTmgbpmT4SCUOV6KRFvc9HDcS/cw/Hmf4qUSbCrlDJxyaech0WzH9aTeNKJ6uHdfKMFI6TY8Eb6wyz+FQ0pFagASnAkgg/Jeog0tWglLMQ2PD/NjqG+AXmGeikm2fIk8xyF9rdXMoqRH1p/xnYImhLNmkuEgatDP73bg7nXwhMnv13aaUm16fq1JiXpEcw//plFeEmIMPDhsmtRZeblxl1oC+ROZekZuqOfqEsrp4zQ0x26YVefT0gpt0wpD80j6Z/IfIPBH4drBZI/OLL0OBbrl8PL0wi8EYRsbeEk4garUlt3ckBjPARPGeFFydRycl9VosLInOj6fLYAsT50A+fyjQ8aBBwiA+wMU6459WDnBw8EEoXYO2nU7xjDRcv5awqeTfT9jTfDpnLlgAJTvfjMaIPpAxFIJkSnx8hX6paanZnPYLuthbr1/vBsJ8ZyBp6AyQNi41+yJKVnA8VlZ07O+r11g4Lk21jUL3QXcGhXrFnw6nifc1cO4TsZ8OOYyOhYJvQCtJUM4pPGnEeMwhQ2mDRUvP2S1cySPbwB+/SZ40Qe02coRE8kG/pWvlv9r52JlZ7/aconKigRvLjlJFXUiX9p7Wy8EqxUAgVG8C8u17ciTmpgrP07FUAHZ6SFmuC1KxUliL9vTZHMV82lUXGpf3HCiVlY8GwHI/voD2dDWxPMpm1ewGQGV6HuuNAHmEM/wZ82cMpdGzkr/9UfJYTUILeC+XQoXxX+dFD68CbDVZKw3qwgUtItOay/t4GnErbqkDWygB9uNsxHg2bS6hDKt3GrjCAQUdKOIVrBBl+s/ZWqTq9O6MZ391fxajPBDr53uADtsj7TPH0zb3OFjIMs5VgmGQgGMfmLXXNqTqACB0Z2Gkf/ogZGgbc8Da309GJzcVqrr2LSwXx+GiMT+F/nWyNAfx+/ZBodSZD56oDx6iSIWtfzq28bPUEt3sKrN8ojaasg+W5vvjxwdBksIbI1s6XIIn5ZHHd5jl3P36ZwP8G8LLOUYS1BH+T4GtH1Cb54eJmPjVoNV/ypTLVRLHXpSVHXBy91kyPN00WO98GcC9p8YlpsTqvrfDx3cVUUZeFg3xU2UVzUKx1UViZ+624W7rP70NRXEuhglwbIiasWR362rENNRs1wIKOoiS49KdeXEMNCHWhqBgoxSyFMtwt7vz7BVItajipy3ernSFKRXQl6H5+rOXKqLO9Bd9gXPezpid3gnI3F28qY1IU7Qw1AoiUnmqv8vf6+ylzFHSDi0/jgVllH5vZa0coDuxRllo3YUYgI2cWndVX+Ngz4j5L/ZC9QNvovq+G9S0QeFxVbPL4LKtHdtgZJpCaIlW2P/jxrPhucjtNVC/ciwpPQPf4JRmOjJrJaEb1wzWJ6xirOYzm6dANQ5Uq/0Y1SKnbIjaXytFi6IKBgp5VHCwC1Uls0d6nEE/wKnhJ7+MkIcup5rV6JK2mXIM85fuOdiaqYC8IncIov9LGuFJaNh+pTmGoSkFHW+2fXKOrH0o1YRY0fWeUTf/3aKcfl/kHXoPNUEoYAgU3JqyS9m0LdKHnQcdcrbQ1e7dfF+1viMKsLOpI8RdbVnS/HaQl0tKtwmV9i5BRncnWeYNokJHY5IDzCine/w1xIy8RhykmmjQ8aBB0SA+wMcAoU49S1FFzRCfO+g7qawXDsXhN8/3vRXbPBlTNR0frfrIfdKuRCXtQqHQXQR0vO9FB+5/eOei0FnjtjrCW9rTOZk3VyIDwjtYPhoorcDgKGiV8G9Jtbe+5uAFS+XmBEVs2rrXh2VV7HfAXuHk7+RUAyHE1B4PaAo0J0JV7rm0lJXrb1b9xPh9/BR7lzY+e36mmHJSy1Sg6EHmmZZptD5KHsU+5ApKFpY+GiVO0fS83xFHRr8oMozh0z5a2PrQbcbXubmoC+tMAdHEGiY0WFttm2j6mOIn9f00l+d9dvKwgQatKGcvTaluSbKYBiaqIcEf20r9IDELpNETricA5CO7acXpBFH8Xm7CD+OqBjwfh8Cja9gl5nBAm2DyyqSS2THd7BnRMLmC4MKeGapTCN9+fln6ZlAZU6pARWrxJdGPEHkH4ZkHylFdAiSL/zM3OAS/5J56BsSjXp498kEWTR3MAmo+weBnqhC3A2JSXzBuZ74pDWPbcWEH433Pv33QOUl05bGSpW+nBCKGDaue51xSC1NzoRipZPIE4m2wZNG+3Oe17QxB02iyHGrTxaNC/naXi4x2NLHgtwjEInpyf59B+jXe+j1GWxlnS6INOBZbcF50ye5oPu8umoAArjfa7embGSMZekExLeDBX21c3U8e8bDOrpsHAjQ4zVoDsu4L2XIrNYi7jdDtdQXRfEnNS7owXCVb/dJTir27BWBH6i6urAqLLytLU0OnnHD71CmgvHjEplzV9bgrySjK4tDw/GWCFSIqm3mw+QqvR4bVgkH7VlymuF4uO+VrRI/jVzTtAEXnCeO9kZi2qXluffDLMne2Gw5aS2FcIHSiyMH9w4LPj4gshM4yEMleCxSW/BUW2gLL0ljQRri2Hfttrmw3nIZ4ZHes9JYthPIkudSyXv13GaefXxI7tBGCiiol3bz52HqD+xztn4H8AJNNXgSwJPZrTqWziWAJMhVAZFgjeCDGgsFKTT3ZYZ3MGjAFn7YXAIe0yoMoGFk/4Qz+39qdT9uoIWhfD3Ytcv+gpxGuF4P1d7ePkHMKIxhSfR+F9cBGWuXm2TDpZ2kt931Afbt9DhYSNXmnGIrJ/YVuE01lc3ehhhcmo82noEyg2DyL4e+9T8+YZ8rgs+OSZeQtIzTYqUgH1cR88NmlvwXXyF50e3GImDZcIWrlVN1wuKk2P+FOIgQxtZHulEADInHO23nHw3Br2jxKxbmAaCWf60wlfZdnSxdiVDjIZOC5yR7csY340EoLD7B/Wk7Y4kivlMRrhWjRJyBB4CA+4P8EfxHEBrixhznGDfKGEvb8VKzOokoGtuDA3sgo3kOHaw37b/At9oT/6wCm75RS0BETI96ksfrLaXlUl8+Q2n8KKXf9lZqVFPcaC+aikUYh0TYJIJK58v1kPfACnsxO3Y0qVXilTtLr8947nijv9lK1eR4quPDThMLKHWJs1MAlz/kat4qSZqTOIV2tkLnQPzmCj42YwxOvYv6c2ztBEFJ9OlsLi1mvl4+5TTTsXnQkEKmmn7KMpDQSbXQEHJ5/f5KoDZNMMl3q0VJ/9YSLxjPLSBRC7AT7b5cL7ygZvyFm0GM0V0gmAinLQZxfwOfD/XDeiGATQzLXur/4PnSNcNpEa0r8IRaQSzyuiY/HGC1ShRM9+N85bg0SShGymtb5PkFD7Cw5tWRF70mZbQrdD0D1bsv8OUPskyNmfN6zbd0ihfhJtJ+Nx4O5pxiQPipo0IzgQ8ox+cgh1I6nbg/3GnorZGx2JqFTfjeI0d3XTKzUeMgHemHHJKMA7dCgnlklv3NqEwgyLCzoBU/ppepteoSIdQSex9yiqA6P2NjH+xcTELe4Vwh4wor7/HABbNvmxAdIGlJr5wUL01V19SD7KbLnW9FLBX5vsohmiMJ8m3FDcs+DZrsNrA/I3qOBN1M+VqsrhTmoI+m0PtRmBw8qv8Z9wLrHXwFg2P2x9dnYmuoqQDInA0m2C+8DS7TnWCaMKNjnBeb3l5chYf3PQvoM9ZLP0u3FSMa7VQVNMpVI4f0vWX6uzpCWZQIvh8Fd5YVDkSTYV6aOKj/TEFJyI1VLJ+ozZxyOEFYv+6iO9sajBhe9Ddc/KHNR08QO/DFPiuy2mjRjUYQJ080VrM3x1KvgbOe4KcjNPvUI7+4IULcQQdgeAKUEdkv4FtvznYtOV0WAFif5C8Y5u+flG+M4DsoL+pDF6NHoIE4fgAo9WucI+Vv/6dkRKTZ/2oiXH/48A66z8Jsx8OL4ExMQhv39FPdAKsfnJERqUriYKlf+4PxvdnZtHn0n3sTif8uZ59b5CSZ1nU7hunHYZL6khcHG2ufWO+y+0xp1rfh03nTBeHWqXokuYL02gfxsjWnfEry60cUYJkubt5E5wxZErarekiouKmWn5AOOwfDooKIB7UJMM2UXTL6xsJ0dseJ9LZiiVDy8MHMWfFimMqcd1QlJtu0icciWfERJK98Pmdp4wkEYSmIeLOhl8JKY9O5mt+1dpvudxKKb+gCRQD9T+aeJmasqSh8I6KEWuJ6GBOTNZOeuBvWbx9pH24y4u4BbULTr5BqOz/CZK5JEaApHp0FBZ/5ZrO9fhEiwb+FBWmOEMtcDdZHcuErH7eN1lcgIS/qu9MP1DV77xYgaKfTrl06T/nRdVwCvZiE1D+LDBE9nXTDJoU/IogHH4r2kmn41Wpy2/RtLaMWtMldBee864cPmZX98pfGTplVe6GreM0HL2kixXiaTEIXX4gKq/V7KYC4pyI3LsUbBmwEdQn9oc9M3lrw+V+kVjaM6+qongZtwQL7PzAW+Db46RjYIyK3Y6V3yCEos+l3+HVb6h6ewmCHlNOxdO36hqqh9FKwo0OzgQe8gPuD/A/8DxTx+kD/8vhr3TvUiQuFQS01YdqydtsoU/XwFK7JAVGxXrp7wIZ2x5hXT7GLcuDk3OFqDw84VpkaKAkiof1KrB6uPeQETBLhyDih2mwvQTuNkSf4sDYQSoM1VJEEQl7xqASRZKwne9rY9aHQ/f7C6cpZxNWFjdDJZ4uwxEJ5wfPNUbUpOC1NV2XNamxScSX2go9kRxIWzAnFOLQMRXwvgMW1yDspu7ZqsBJg6+crUYKNBEOxqLrjubf56HchZrGpwRWlEwePhwE2kIaFIFJGahVj5b29tSWigeA3SW3ELjK02c5Ynm40XSAASBuFPv4nOn5MHUWtj0MoIem9OkkQ9lVkCjKG/WM/Qn2DbhYjQTxEgg/P0gs14/mRRSsqmg2+09ydr5dqVQx9MchBIiQ3r8MU2EI8hRag0RndgBA+/YaBkMLwuhtlODiYvJJavWlaHZXyc9/mempc9Qv2QbZf+y2vCUqj5IJHUdlNd1CDb0YhygfI7PcHNPcMu3PJs5AROrZqGIZxXa9lYweZpEUtEcDjyBHEegJGdt4GYtEPPdXQlddB5hYdVdjad39wBzYjgf68K8N/AtAytTtb8cvd3fseUK5qQuHPRnO/EYs91NXdBgaqnb4zWA93zFk5TOGOLEAj1VD/TyfvlllRu6JsZCFo1bWSBVfSs11y+jvi/sV0twNhD4CCPjRGCBf7cN+Y7gumA47x31i5w5xHuc1c6c1CKO00gOeKEFq67qT6OFEephcG1JXkpGORUbOWHntPn9n4I332zRkgV2gIW8jG6fk5ciiyJDM0xq2P71LuugV57eiF9dQPWkFqhRLJh/JR4BPFY4HnYTeilSaA/k2yTgUUGJAe4DuX0uNQH3Gf0klGvz9sDOok+Fa+ELKwSJYAE045SN6Sp3vWacfi94kpaO5jhMeT58TT9QACVUe4I0tNSPoCnoK9vlI1Lus5c5WSuYv6dbe9M3cbWUrQMbv9B0KuimvD+tYms/mDf9Dnbh0XSE4eBZB3Pya/AXuXtOmzDc1pBBnvIx4IxfswqdtStu7n7m4tKkUxhlhbVmZlCifSVttdomWgoEZ+4qN+2PAxjKPB/pA1bam7gJFn8ZfECaGjoaoVTNxCqtMpmOj8bXqMNizqEuxvDmoYYIFv8aPVCga3TrveN5EqTwP/odvvbP4gQIDulBOimlbSm1KvLBf1r+0Ci/KGawqhKvutcx4jfh6jk3IXeZEijsAdVEKySViX/fk7JtjM3Fo=","1"
"","","","","","image-button-response","54","148872","0.0-11.0-0.0","ad0yx0p337tsa0o","conditionB","null","","","images/list_2/timeline_2/8_Cillian_Murphy.png","null",""
"","","","","","image-button-response","55","149761","0.0-11.0-1.0","ad0yx0p337tsa0o","conditionB","887","","","images/list_2/timeline_2/8_Cillian_Murphy.png","1",""
"","","","","","image-button-response","56","151562","0.0-11.0-2.0","ad0yx0p337tsa0o","conditionB","null","","","[]","null",""
"","","","","","image-button-response","57","156063","0.0-11.0-0.1","ad0yx0p337tsa0o","conditionB","null","","","images/list_2/timeline_2/4_Robin_Williams.png","null",""
"","","","","","image-button-response","58","157072","0.0-11.0-1.1","ad0yx0p337tsa0o","conditionB","1008","","","images/list_2/timeline_2/4_Robin_Williams.png","1",""
"","","","","","image-button-response","59","158874","0.0-11.0-2.1","ad0yx0p337tsa0o","conditionB","null","","","[]","null",""
"","","","","","image-button-response","60","163376","0.0-11.0-0.2","ad0yx0p337tsa0o","conditionB","null","","","images/list_2/timeline_2/10_Robert_Pattinson.png","null",""
"","","","","","image-button-response","61","164181","0.0-11.0-1.2","ad0yx0p337tsa0o","conditionB","804","","","images/list_2/timeline_2/10_Robert_Pattinson.png","1",""
"","","","","","image-button-response","62","165982","0.0-11.0-2.2","ad0yx0p337tsa0o","conditionB","null","","","[]","null",""
"","","","","","image-button-response","63","170484","0.0-11.0-0.3","ad0yx0p337tsa0o","conditionB","null","","","images/list_2/timeline_2/2_Paul_Simon.png","null",""
"","","","","","image-button-response","64","171096","0.0-11.0-1.3","ad0yx0p337tsa0o","conditionB","612","","","images/list_2/timeline_2/2_Paul_Simon.png","0",""
"","","","","","image-button-response","65","172898","0.0-11.0-2.3","ad0yx0p337tsa0o","conditionB","null","","","[]","null",""
"","","","","","image-button-response","66","177400","0.0-11.0-0.4","ad0yx0p337tsa0o","conditionB","null","","","images/list_2/timeline_2/6_Halle_Berry.png","null",""
"","","","","","image-button-response","67","178172","0.0-11.0-1.4","ad0yx0p337tsa0o","conditionB","771","","","images/list_2/timeline_2/6_Halle_Berry.png","1",""
"","","","","","image-button-response","68","179973","0.0-11.0-2.4","ad0yx0p337tsa0o","conditionB","null","","","[]","null",""
"","","","","","image-button-response","69","184475","0.0-11.0-0.5","ad0yx0p337tsa0o","conditionB","null","","","images/list_2/timeline_2/1_Muhammad_Ali.png","null",""
"","","","","","image-button-response","70","185180","0.0-11.0-1.5","ad0yx0p337tsa0o","conditionB","705","","","images/list_2/timeline_2/1_Muhammad_Ali.png","1",""
"","","","","","image-button-response","71","186982","0.0-11.0-2.5","ad0yx0p337tsa0o","conditionB","null","","","[]","null",""
"","","","","","image-button-response","72","191484","0.0-11.0-0.6","ad0yx0p337tsa0o","conditionB","null","","","images/list_2/timeline_2/7_Amy_Poehler.png","null",""
"","","","","","image-button-response","73","192132","0.0-11.0-1.6","ad0yx0p337tsa0o","conditionB","647","","","images/list_2/timeline_2/7_Amy_Poehler.png","1",""
"","","","","","image-button-response","74","193933","0.0-11.0-2.6","ad0yx0p337tsa0o","conditionB","null","","","[]","null",""
"","","","","","image-button-response","75","198435","0.0-11.0-0.7","ad0yx0p337tsa0o","conditionB","null","","","images/list_2/timeline_2/12_Billie_Eilish.png","null",""
"","","","","","image-button-response","76","199080","0.0-11.0-1.7","ad0yx0p337tsa0o","conditionB","644","","","images/list_2/timeline_2/12_Billie_Eilish.png","1",""
"","","","","","image-button-response","77","200881","0.0-11.0-2.7","ad0yx0p337tsa0o","conditionB","null","","","[]","null",""
"","","","","","image-button-response","78","205382","0.0-11.0-0.8","ad0yx0p337tsa0o","conditionB","null","","","images/list_2/timeline_2/3_Dolly_Parton.png","null",""
"","","","","","image-button-response","79","205972","0.0-11.0-1.8","ad0yx0p337tsa0o","conditionB","588","","","images/list_2/timeline_2/3_Dolly_Parton.png","1",""
"","","","","","image-button-response","80","207773","0.0-11.0-2.8","ad0yx0p337tsa0o","conditionB","null","","","[]","null",""
"","","","","","image-button-response","81","212276","0.0-11.0-0.9","ad0yx0p337tsa0o","conditionB","null","","","images/list_2/timeline_2/9_Jessica_Alba.png","null",""
"","","","","","image-button-response","82","213292","0.0-11.0-1.9","ad0yx0p337tsa0o","conditionB","1015","","","images/list_2/timeline_2/9_Jessica_Alba.png","1",""
"","","","","","image-button-response","83","215093","0.0-11.0-2.9","ad0yx0p337tsa0o","conditionB","null","","","[]","null",""
"","","","","","image-button-response","84","219594","0.0-11.0-0.10","ad0yx0p337tsa0o","conditionB","null","","","images/list_2/timeline_2/5_Eddie_Murphy.png","null",""
"","","","","","image-button-response","85","220367","0.0-11.0-1.10","ad0yx0p337tsa0o","conditionB","772","","","images/list_2/timeline_2/5_Eddie_Murphy.png","1",""
"","","","","","image-button-response","86","222169","0.0-11.0-2.10","ad0yx0p337tsa0o","conditionB","null","","","[]","null",""
"","","","","","image-button-response","87","226670","0.0-11.0-0.11","ad0yx0p337tsa0o","conditionB","null","","","images/list_2/timeline_2/11_Emma_Robert.png","null",""
"","","","","","image-button-response","88","227196","0.0-11.0-1.11","ad0yx0p337tsa0o","conditionB","524","","","images/list_2/timeline_2/11_Emma_Robert.png","1",""
"","","","","","image-button-response","89","228997","0.0-11.0-2.11","ad0yx0p337tsa0o","conditionB","null","","","[]","null",""
"","","","","","html-audio-response","90","232404","0.0-12.0","ad0yx0p337tsa0o","conditionB","1961","","","<span style=""color: red; font-size: 24px""> NOW RECORDING </span>
