"success","timeout","failed_images","failed_audio","failed_video","trial_type","trial_index","time_elapsed","internal_node_id","subject","audio_id","rt","device_id","view_history","stimulus","response","estimated_stimulus_onset"
"true","false","[]","[]","[]","preload","0","4597","0.0-0.0","8ntn8ps5u2dkwvr","8ntn8ps5u2dkwvr-2024-01-29-01-48-50","","","","","",""
"true","","","","","fullscreen","1","6826","0.0-1.0","8ntn8ps5u2dkwvr","8ntn8ps5u2dkwvr-2024-01-29-01-48-50","1210","","","","",""
"","","","","","initialize-microphone","2","10554","0.0-2.0","8ntn8ps5u2dkwvr","8ntn8ps5u2dkwvr-2024-01-29-01-48-50","","dbb274f5073d57a78230042ac507b1987ded07513e9e5ab443d4135d1e65eaf0","","","",""
"","","","","","instructions","3","12266","0.0-3.0","8ntn8ps5u2dkwvr","8ntn8ps5u2dkwvr-2024-01-29-01-48-50","1710","","[{""page_index"":0,""viewing_time"":934},{""page_index"":1,""viewing_time"":776}]","","",""
"","","","","","image-button-response","4","16784","0.0-4.0-0.0","8ntn8ps5u2dkwvr","8ntn8ps5u2dkwvr-2024-01-29-01-48-50","null","","","images/instructions/timeline_0/1_Barck_Obama.png","null",""
"","","","","","image-button-response","5","19507","0.0-4.0-1.0","8ntn8ps5u2dkwvr","8ntn8ps5u2dkwvr-2024-01-29-01-48-50","null","","","images/instructions/timeline_0/1_Barck_Obama.png","null",""
"","","","","","image-button-response","6","21322","0.0-4.0-2.0","8ntn8ps5u2dkwvr","8ntn8ps5u2dkwvr-2024-01-29-01-48-50","null","","","[]","null",""
"","","","","","image-button-response","7","25831","0.0-4.0-0.1","8ntn8ps5u2dkwvr","8ntn8ps5u2dkwvr-2024-01-29-01-48-50","null","","","images/instructions/timeline_0/2_Leonardo_DiCaprio.png","null",""
"","","","","","image-button-response","8","26675","0.0-4.0-1.1","8ntn8ps5u2dkwvr","8ntn8ps5u2dkwvr-2024-01-29-01-48-50","842","","","images/instructions/timeline_0/2_Leonardo_DiCaprio.png","1",""
"","","","","","image-button-response","9","28500","0.0-4.0-2.1","8ntn8ps5u2dkwvr","8ntn8ps5u2dkwvr-2024-01-29-01-48-50","null","","","[]","null",""
"","","","","","image-button-response","10","33005","0.0-4.0-0.2","8ntn8ps5u2dkwvr","8ntn8ps5u2dkwvr-2024-01-29-01-48-50","null","","","images/instructions/timeline_0/3_Beyonce.png","null",""
"","","","","","image-button-response","11","33854","0.0-4.0-1.2","8ntn8ps5u2dkwvr","8ntn8ps5u2dkwvr-2024-01-29-01-48-50","846","","","images/instructions/timeline_0/3_Beyonce.png","1",""
"","","","","","image-button-response","12","35673","0.0-4.0-2.2","8ntn8ps5u2dkwvr","8ntn8ps5u2dkwvr-2024-01-29-01-48-50","null","","","[]","null",""
"","","","","","instructions","13","38546","0.0-5.0","8ntn8ps5u2dkwvr","8ntn8ps5u2dkwvr-2024-01-29-01-48-50","2872","","[{""page_index"":0,""viewing_time"":1052},{""page_index"":1,""viewing_time"":1820}]","","",""
"","","","","","html-audio-response","14","40842","0.0-6.0","8ntn8ps5u2dkwvr","8ntn8ps5u2dkwvr-2024-01-29-01-48-50","1266","","","<span style=""color: red; font-size: 24px""> NOW RECORDING</span>
        <p>Please say out loud the names of the celebrities you saw. The names can be said in any order.</p>","GkXfo59ChoEBQveBAULygQRC84EIQoKEd2VibUKHgQRChYECGFOAZwH/////////FUmpZpkq17GDD0JATYCGQ2hyb21lV0GGQ2hyb21lFlSua7+uvdeBAXPFhznhtwno3g+DgQKGhkFfT1BVU2Oik09wdXNIZWFkAQEAAIC7AAAAAADhjbWERzuAAJ+BAWJkgSAfQ7Z1Af/////////ngQCjRCaBAACA+4P9Nv8Jf2zBwAQuct5GQ4ckYJyMwcrywOHEh5G+5SV0X5tD3YMs384Qp6l/LyRAJoKg+N6lPP0e5oWzevsAejCDXrhK17jhEhGhAYg91NM3nZg4eVa2jR4AU/pwDrzxqob50q9cKL7ps5B7VowUslKQf/xawEJrO9mRvrZt+hpliN/sTfeyv/bOqCILyq8Lom7x/TqN2NSJRPsfeXAiUE/KWkNMmVMxxQcwhcyIfKMpjsYn1j0LZrVxp7OVtyBP3VkpDdiNZMByxsvFsYmuv1pvmfkiWoc4c3AAAAAAAAAAAADe2lZzOUG08NQcid7I26SWvOnLV5UJC1ErkJxylWNX/3uA/IxjYyEgOM0Nk2MwY+Eo0QRWlhezeuDIOm/tUv6be6iqTacHIWU9Us1K+TeJE+2cwM4HPm8dddtkApQd9gTztpMaGcbI6Tr2dLuAG7cRztzw30YKO52M3xzTGQpoiky6R3C7BCucoQ01/Qi033ztwRVVaCJzjhvCVFOBN4taUfpErka96XVJNsL0hMEi1OAdDSi24XZbddVXrBjTjZran+IENMzh4+v6qp9eO2KZn4182TkCrCS5R6YYdnA3MQPFqxAIOAGXLkwYb22o+JUpDVxaAjQjslCt/N6kByeDbb6YQnvYNbOUTsbieHRrcKXrAJyOAIDWWWCSSxLk23S8n7O5p6xCEHy4s87XA4bAvMUcXZv5LqBVgp6uR1EBu1ejY9jA/T8RJOrLU1X+ygWtq1cKLYtl5KHF9LprbGLOeQOR2FS7+ayGTibAvcCPiuuzHwK+ef8AHWeun0X3sw/h/TxLvIRoY/5+yyt8XUr0YTxV1lMyC40b2cj6r2APuVJDXJYwhDnYos9r9jvkD+OzX//SdZ1F6Dsnf6EFoiRurYA7b9xvS6G6jAa7qzhJ8L3eiKDlEM7DFLCyRskhGBoUo4V1fYl6oUEaQblrTuqMxDG1TkMNnvbxAhCZbafTZOedLwC4VDZCh0aX4kJkFmYD6no5FVpGWPgZJjw+o412As/Ok0w1NPhTUMhkIebJD3LA06e3TL3YQ33FyeVp2ub43bFKpOoyE7aiiMSoJ89utmE8eOpGSn38DcBt7KLQg+waBEG7x8VebuvsqENLrn5qVcbh8hoo/V4mOv0J1WI7tC53FloEZOxzjCSWx7qwhvGKcHLWaDQhT30gVyFLVR+azZhqJ0MTc4rhoYrfaVZma9FBy5OCDkbSzYkqdtTdseMC6VaiKdpZtjyK0NmwAHQD6ZMe5+8ZRXwwdI0Sa6ura0i6/TkxFoDgbeu/+AuKn6FzSJPuBIU0q5BmOhadk4DgTCJz9w6et/9mIEsBenYcr+aEDJUIlebxjGH28UOtCE8szVzimHVOscrVgfXiSuUyJovwlOP+vqdpkLh6th2jQ4CBADuA+4P/Cv4K2nGr8Ft0jfw2c0WBi9qpvH3OTJmg3kg0nU2E7nYGYXGFDvwpvy3m2b/ETQ3Xwt2IG8ooH9KMUAP2BjJIlfnn4dVBxdDV5XtXA/ZWqG/cFa8pv5YxQj7+3U07/ke+gqly3DnpqVsa7L4YAzdjyHCDNT84mNxWgngL960aV/iwC8yTSidYgQIuyA3tPjVi5S4xytLypRuS3lDJt04pZVHnMx9AGf4nYFB9uo0MFHZDi+BCtc5ppTuGcZnWBCV3sn/uQIhJCLNHaq0YCpQOcueQDT7uJQaUtU6FUW7WcanhXa08gQ3I0iTeCCjtwOgEjUvqzt7SHUwgUHH5+Zc4tHxKxFSR+6FVxYoKAHDeM8xPhtsYkEiLyD0R9oajtjtI8/Kk41gY0GCp8VMaDZ/pwDIy+PyVWnOtHNq3fLUjLf8F/wQHmFyMv5Sbtu0BuuCAUbwCfj2cDGKfOeptx7ZG3J4NJ+rYNbkNFtq8+ZfCXoE/AgDtDnBM7tdjXQqBE1IxhA0JLwuAEVDXnDvHjAOjGlqDgHQJFZAZs/ZZfqGnXEaBkYPCyIRcu4lDTN6uKUFinL+FgI4rwLG6eKBCXSy4tLysmiznCYXUBOCoPgAQnfnqAEQc2J+snLLlEJXDUO8NfP4TdK5pT9v7xq0spxf5/SB6GJNKyXNXIvBLh1Hodiju5yP6tticieeicYx3reJU2dMCfY/LxF6IkTHQn8ztMnug/rrMj8XxOjrJzD15ri7Iecf9X3XnSjqAzJwgWjhqVGOKy3Tk/5yot4c7lyB4izziB5CEkQ2mHTO0RPPw53Nb6smh0kCSaB2QsxBHYMzJ5RfjeMfJfsTMaaah3XnvhxgixpD98DbM9KiJt3feo7f+SHQfefUGI4dTKdfs39wnrp35IVcf19ZVxwdUl214tpz8C88yaOixXW5rWkbDQApuCPHfjs59pNZ46O2jy5/XWqn52G1r3C/WTxoQhy3yGI5r1lZdw59A8onzx4PP+l8A13/50X+bNGAHEtxpYFoI3nUKlodwbyPYBGWUoXpipYioVM9EP5PpFhEm417iHjJoDVsBVV5kIoEEF8LiS5HSvViZEyeILE0O4BPq6sfWXMynug2REJ1QBwM3NXL5nzuceCcPCUek6/ZUnPisauqXzEG2++947mMvy55mZtHL6mxXW4RvYTURkaNDuIEAeID7g/4M/BFTL7ykFP3DSO6nvQdQ4bVDeW3e3j+k2+e+pvlZICDGNl3jFp+tLiKVgJ9t3y/3ifd1EoyKOKbP7r0H7q9x5ooNblIEJPFL/ZJUs4w5qOOPaCpFDkZ6lR9+aZH568MOhbzn6vbOt3stBh7WdphKPslrPo3ajYQyeLftzKYAfx3uy2ghAvG7VQom8Culqg9zqMBm/0nd+98/MUCIQSFlgPC4zdJTEDRqchCXY6d8Pp0IgS3ccCSeR7IFeh3wW8e/00ykXtOfCnAt4GBQvnXghxZrqbn+qTOYttaP3HfnitYc+v83fv1pnGc0B0hCA13bDhkj9Cmv5x+qor+ikp0tIRrHd7XhZYZZStbQvPYhF2hjXcNzT7EvdULWr1z9BMlC4o8Y5ki1hJJMsd6E66Dvh1MhSKx5wZlMj8Ul0WbJj/UtZS0M3pj07KxvhRL/fk+9c5SBWlErmsRuFn1JZjv/2QO6A3FvyQoxevs61PmjNO4rzar/BCVowTxOrcNd8JyLI14qmM00DVIpeU0gZOKd8HHIgsLtyxuWv93kqWey25AhFa0PPqt1t1x1vgJdsH3FO2BTBz2FHdI7aUxeuhWorBD1ss7Snuq6fbaI0rfNYyf+lBAe4/cfbJ2JgVyp1uFWqUA3ZshjdaZU3RLPv49h61nf1d6klKPJo14qghuWBN4/vrQ+nXOxPpf6NR5Xr9RFyCLvN/hyUWp7ungnOn8M/MQaT56DfitI49sqTHC+wGxmzz89TTpcXTGoOiVzVc3ROM7q6LitWzsUWiz5LIKs/4fkqU8pV9tNSt035PNYsRUslU59lkyX48W1LEO1xw4PPTEzC0c63BR3UCy22CiQYofPOXyjb/jYjl1FaQSaI7w9M9p02aQmeWpHtPzpo6fkdTtD2+tbKTz2FVPRNYMafDjqrOUZijsAOGJH8UiU7fYs5nSv33S8MMN5Oi0G2S09nZl4s9sa7bU1y/FmrsJo7zCnV+jIYYh5KT0/AsefxUWMw0wwk/29Vwh5e4ACnVafIO3wZMZft6uP24NzgTEkew67Z0sbTMrgfrPDjSGeSxg3pHypmv8P+KNgPwzDHocLTiL326fHU1+sfgrPfc9qHbTY1wyt+JECEgVGXjTX5SADD0jo7pZOoTfnxZGqL55dqxv50MfUcPFappjIKYKwvv7G7kP2XYd0X4mdC23ql7oO34CK5uVme/P5jMa518TWceVac4Z82rUgNq6kkhRoVRYe9n1bSbjpp4gjZ0BUIY6jQ8aBALOA+wNTR4OWf/aB4+uHztPceHtEPGx+HUm6ly0NPcJLpR1BV61ZyVkBssYdmYDDEVn838ohbudJ7Evw3LwfETIdOECo5D0fZgdwa2+Pjwg4/vxU7xOsJSB1QMdzOMFgu5CpdZIZxvnRTfzfdQAeyqXEda1x4fdEVnRrL2rsCbuZnBPHKYDAg508yFeIjLOofNXIcYcVrucuujVIpJS5woRHXgOuWGKNkdp3QfnJdbu8IINwmLLtY6obemqc4usuerMHpMEQCuTqD4bankpemY6HaJy9/d8qJahgpd8aclqEzniiLqBfYMNkRYxL7aU/l446oGlEOb7fdQGSjW/KpxMwQmkBOlPhE8aN1PPxr2a22jSOkPj0jVqK+y/K3N4XqJWWi1HKDZvQbDD3oCs4BalgJZVXPiVxCX/Uf3ys52Y+2oJ8Gca/yJxE5o5T9wGFA4BMBc9OlotaGnxPHSLDDdxVjL2LYN5m0SuNSYsOsiKY6+SnUwzmHWKo+p33Q5iun/nQsKuEqSi29CSSWsXNJmSCseyk242v8HKcUTM2FZ9wkM/d2F1MNZFOsele9CqveWz/QE75Wk4mI8U7EGTQgp177R/qptw0pQ4pOKuS3g7W5MiBZLOVE4ufyXAE+wsEbEaWiBLgV7wSotijOUeukcNM38NPpNPtNoF9KxDxPmR/cJgaSJAAXwNya6esKhK2IhyaxMfQJ+vbIJ77os2QBp6pCp5Odu9Th9FxmTevUTWkx0UA0BgwoPTtuiY400QWt93puTgqcmwhVTmcYtSgVZOUZk/Gae286fuLsHUiWBvoONY0zplITGVx6+j77Xqbvjsdxks+ljqT4qOOBOgCjXESYrEZPs2PyYyhZzTvwnjJwO3av7B5FxUJ8lUpm2rvmWGdIXnjVl9KF+dolVyzPm45LjNoXf4lA1SGWo1aWlfhNTzPKit5gd6miNdbJdBa77pwJQmqlysXaUm7TSmcPcnG4PjCDOj5k08k3TtKo3i+w9YZGutPUpv+sp9utsQwZAsDcBjc3RT0FKGXi08Jwdi6IRls2BYot4gheqmJT9YNAfN4GlhvXcZ11kjMEgYmEK9PHO8LwKXJsR8k4ausvJXXQYA/J2o+HKCk1gdlMEqElIosCgQEFyay3S7wnH/fqw+qf/T6oogkMXqc+RaJ2/LPSghbh0tCw0wjKAERK7jxxF/dudP3vQRB0Sm+dhalA1MLP8QotRpVQQJ3+cokSzkCOcdeBBCEiJpZvghCQxxSGSUY8sVW158ybofC0v/6oGAQYuKjQ8aBAO+A+wNPsyfNHmM1R4mXYkbwY3qC3/0ugMEjtdPGBd79Y69oV6L/BqgUxMRquHi3cT1SlMRuBdsWHpvDs/amOGpoI1AaLrdWu1HjJgL/6Byy8BaZX6F7kezYbjoWxAlsm4+Urx+bbW6q7I0k4JAJtCyzv1nJkOMy6zDsFGmacyNx5Zi08pHuR/cAHJZbY20RFS6avQ4U83kn+GnxhmjmGe/8vvXoGpJrGY/YWXwP8EF3RIpuCa/3uKPtes5/uBhmLY5gIPPW41RrY+83tWgt52WsKn6+dP8TUtBJbdfhS53MsWRsPWcxU4QFUf9ttO790RS9KdL0fXFHrBrwyqI+pRaQvFKL8ZEX0wI+MEIgGDikLR+V35WxQ8QCctfX0vC7ISNh+lYNBwbpohFoXdoJWAOW4WX4pBRGVTJlZAY7rvrIfBGz9Ftk7n20QaOQ9e9WtvdHkgXDR7rjBir1UX9AbjzImPUtADjFSYZpTD4GnCW1Ki+SdYuQmMdLJfWAsGT7aZQ3eRymUNWTqC2ybd31l65080dSCR2TwBq4miLYpCg0DjNJF+kj6Ut7P2aFjkE7kSHXSDf2D597vfTphbwMDoOfLZZx/DAafaMoEAzmD7zV9NUcjOT5ieJqkjjFMq6ujy9r7Jb39+ROUQa3WLED3jeZ41Mu1e+tojtgyMOHzFf5p04PbRPdczxaEhAQC87xbaJu1sHE4v1fLaYNeF92x++oDU1oTbeLITpeYc4owe7VN802zpiXv/D6NCv6ZZ9s0+AIEc4F5YZ53AC1CGXdZiKhTtZCpuapkXfcxFgw+G1UvpCJdBBfa1FlhmOetsURgmB3qTSjKsGdzlkm9rzvPjfewXQvPOjBIy6QoQkS8GgKK08kHCdJr07eGwq4ckDKtlZqZTzrC4sxP1M7Rh2q3F/wSatCQNwCFNd4RRzeq2dKrJIX3uhmDx2s+jTi+AZbHhSkmaiVeR4xjJBMjXAYPAUsqkq+DrC4aiiPIVaDc8MVyff2cdLdc+XuVmawteeNCmZeVsMp2MPSdx3zdcPWD+6VBwqKfR4aynPpXje6fiGGOI6vUoPwkRk7wfGk4qVCK/EVxgenfo406AWcZPAfQDXuI4EXZMFHrnPhta2fk1y1l6f+SyTytJMOGQs7X3YDWdE/8CL8jZmD5hefbzssPnkR6r9/OvLrI4pVP98RTgpWQYIeKbrPp/xAp44076C1OacOgSXzn03ZxrJCThma4zUoFy5WemTrI1F4xWr49Yo9ZoOay2YdqwI0RcQCg+s7OMRuOUCjQ8aBASuA+wNTMY5q/penZaiWYQbx6REpVSpCGaP51WVG/NZsGgFdMsfmA0BD4Iuf+t9FAA0i/r5Phc5qpylvPksZFia7CaAg6kW7DMv2xQldeV5PE9mtxFBssDfzb+Hv1mUff+UWG70ZjWgDGKB4zwQ1QYSWmqAQkEY3lr+pA75hix4uztZ4XSLONIlZkW4KTpTiKVsCSyOEWG6ITAttTN6C7GslOWKX1yQG4BKIqgzEiwvhA7KrYZfNixOX/RdLL2yeiIWdqWJu1H8vkjkGZ+w49K4rFtDajuRyIs6YTC+wjbW88Rkc+ORXrbUk2UJKk2GcDKForhUcrZPNvrnDwiEPF1184KORjGE/y8OFR+LZ9/++Z9PJtxhwwXxd0C5ZlaVBuivEdSp/+6CslknVByiJTfNIHtrLnxRsQCIyY8qLuv3acruujDzaDmuq1PLRh0wcvltzL94/+29L/ywe7IgcqmiEOzBlqZdbsN7198fny4gN3etzyGrT3lA/uQg/XbwAQciyNEGUAaK9//0q10g3dnNu1PbBg4Hes6uzlLU/yTcZAiWOK9D/wCz94tbpE0DrIS57LSA85DyYXttFvDAC804TImYc7+PC9iKQsVHBQ8Ki5iAfrqux7DGcHIN0UVA2uh4+ctLcVNbwF6A4/OTP0sCEbev2rXw6OmU1Fylxeq5qJoaUzg6FEQpcBRdAZh5dXeXo/IGp/adruIKipwT8eiqQRVw8l7UMLa0Q31z1WmcT/pZXEYVVSFRI+NfHItxOYSaQZF4bk8LQzmajYfxHkpVzrStftO9oCf/iMBsCHAzz5Og3X1Lewqoc1Z04InPPNDninAdrPxAb0beFPpL6MEHKsFMNUwtwOOAuR6JTbp1b4R8ZzlEiPjVINGAzZsN6GLdTnI38bVFN8w5oGbpY2b7AUWRTCID9hI1Z3eCM48IKmhpVYpViekXAGhLBMLtlHO4xkpOeOf5j38EEjE8sN3tG0ccbgNLSHKlCT6/Kf8MgJ4p/wzBkt3eB7q4rk6zEiu05nx60oGfoDMKv+fpCEYSTh2seFuSd6UXB8tXq2xzhLVrhM+cJn9ET8f8M4cLZFAtSMuPJL+7WrQhQYdckoyfz9zhicdkgDwPrmNtyVIqkbDPDH25H13ggf53x3RH3nAKb/eebWQ8DKr9/tK6ifqzlYYIJhIzg/9L10KWqlGiTSWvZ0zUm52fJIDDlCDqkma7kqx/ZlfMx+wDUGuXU1C1zJsyZgwZvfbRFcMvVWsEmPqATec/O7mC7U07dpZdviMmtT0ijQ8aBAWeA+wNaraIi+tI/uDzagec77WIf+YJ7UjPaglAOICCJGfV8Z/o4Rm2VppemDjTSaqwSIn00IKnE/kohwOURhTuTIeworWahCASUripw/+gPPHUj14UmYqaCsAQh6sl8Q4XM4PrRlSVMNRMZYCwC95mzOlSgQe+Sll1OedAHorj8xgIrjMhnIk26sMLswZkHpm0Mjqxb0W8qPQCT64SB0bhDAYthae+pKmWzL4vV7aKD4Q/YVGmRtL2THtOUX2s9NjKh0YL8C/M6raivS6HKkdO4lh3A/hYX6VkK9rWoPJ4BtGsm6+i4kpvSnyzMSMYG4b8Z6Is5B3J0o7H4LW9iXYne/lazYxwR8pJhsCQY/wSMB14yFTdkJSsU2rMrFKiffRtFtT3BLIoelKuS077N/Z1tuAXbYECWRtF2nUbO+3xqu3eN7++7vK6YdDMOdWFhcG5Lrx595aB2dkphjYcwW5dmGHSOYmqX5xPhGMjn2kJe9DEp19f/De938AisfvMaLfYPgN5vholn52AsoPiyaJcgj4awLmcGa4vksLMpylUClfRkLagV+FqjhYbtogpwX86sqV0CKcl/A2+oENaDjk2Tb4oIvEceXo6H5W9n6RJGnfk7qzeLRgqCeG23YKX/BBbTgpAqsm7ZrkXZnzbWW40ul0nt+4UFMas12xa3ktVpVtZAUyGHU8vwIk8gM23v+g6A24SE0qTjZksLWW0yWNRGMA88KeOllFgL1jkH0QqwEp4OzojPyAoDVXMBTVzNWDh4LEJDPVzccUOfM2kEDeMlgx24XU+pHCNDHqAiUA5+97BXdnupjymx6jBnXIy8LS7+bbgv7LERtz+sWaudgSL0TDKJUyrMjCsVVHHmFs5+Jvs+JOHpJYfAOqejCWhLhSm3fu0Hnp2x7H6VECG3D6EG00U9pfatwNBVCUq8lsTqrFk26Z89+c8nCb2MEwLkIFqj29WyVtp89O+jT3UCr+6LxjafMtjMw7t6j8aEjpmqPXZMkSIjS1h827KO6PR7YK7eX/v3ctEVePwKP8iWcksGSttCI0m5Cfo7QWHTYsjTUUUKFSOcCrVYKdib62aNQ5C/Fth5ROGrlSDUe2tkCkCMxHGLfvJyzoYwOnSEZJgJn9KwpjoYWCEWh0nSkvd0wGD3cArt86//y57Kugq1JQNe+GgjMxNQmBA6pAkIwlO59pR6mVP5ZsMLtyayY2lBIEEPnltBbvI7U/keL4AwPndf1hAlNLfG4OO+S5UxKjDo5suaBL6fTAPHs1GTLftacSEk30yjQ8aBAaOA+wPxTjLU08TuuvWMEcYSs9UDZZabIN26Vp6HDjPT1gYHdJi6bfyThZuYkx87kWqGBd53uChBqlg3fCMTK7VtKKvByM5wYCl2ECeOGgala1/6MrPJpdTGmTbWjHors0kjmYCP09IummOIcNupi26pl0g5Xp1+KUsAm2lFQbIQu13ODwA+2Ric4DumGHfD4N2juPYxuzvmTILq+YoorM6xsXVqaWov1RASz+SiWXg/b1WgmyxIk4XJFuhyeif99Zw8F8lB/2ErB8YyrSu1uYZQ90IQLy8AF2a5FIpSIg9rjY+T4eQ2G8qS+oybt2eDTRPDaxrsJNxYe0MmQGulQWFAiK+oAis7PvE2O2PTRS4Eblu9D1UYKOBasGbXvwErh7dTyVZyf+yQfuQiBDxIFUCadDtfDkGwmVPN/z0hOahiMI8UjO/3Hm6RIteLuflkWsZIh7HeODFHpUGfIpvdvmOQEai/R6uCZPOOhbJf5c6uGk6HFelxoIGIQYG2oz3YGco0LbZ4ygzhORVFfnjNYO4JyjL90wD5YnzFOQUbBL7i4Gqamvf+GKkb41LzB84+KEcRW/h+FWVonJoR34CMgt2C/ipS4LPq07jJ4J3OQpkklGmoxiT9Hq8d4RkUn86fMhocE/lX8Z9ICQVzITeABsUGVSbXdIU04oFvqAu51tXalSbJ97wBDhyK5Q5hyMvgPwWQrAleJzu5Tb9mrKM0qQrKZ+OUpKJ/AjmTOqUdiAFbI8n67pQKmuBao8lo7DxNcVc040oee2WQid5wkoJAObsmw4KlWp+fvy9azh4lfbyyouI4jXbtZByLsS2TjOnf3gHyMIZlGk41OWFjS5/Z2VLMyrSP8ZXYfIr1iW2GLDe3if90XUk48gC99QmFe2nGooKjsbnHxmw63/sGo9UKyLzqi1ZRDfoo30iHz7UcAg1DfU5RvWef/2IyNLqesRzQbC/cry5dMOfabEmu5tCZOTtQqs+JEN7i61Ues7cybyOERRxxWg4tcjNv0HqJEw/bMeuyPgATMcrtuFNLg5Y1tJIrXbV5FqGGdcctsBmB/VnZoARimw9jhGP7YqKUVjs9Zwpa41NFWvD9O/NaK8s4gjlUJsFYQ01k7Orj3Dd++0c6yZjcG/yoUr8/nyE+Z+UnwFmSVe3URr6uHh5fXJYP3dBtRM0YtVA3iGUU3LL7jkKA3yc9heJl4EeXUC/7TNaQ5vgwtcUUc6ug+Sh+DA7fymNwFZS8wDcAhDZzfAPPsH3L4e+I6JMwK+2HsHiDj6m6YBl0pIijQ8aBAd+A+wNayX+RIE7LsdDJdH568NFMhRzin64ouhAmoIR9KpsjDkhxHE6FINFmceDiKdJrPE2c3yibe/55ab1wooEMNltPLxC5xh1CpFXmXWWIup0NLEEUW1ssnpc9chCFBD5JU+2mcWX9iNuwvsw/lNVQMaskXlYRxwKP6MgUh/5uC8AX9Ct61mYHysPA7EHr6+ukMle3H1unamfDQXhjpc9DrKZ6e6rBh4nH3cekq2WlQcv/mq7rAddDyIfgKTy+RCGelHnyzoCDNGZnoVwnz8AOW4HOztxkJwMJOAB/1DSwmcxJwQS8F8QNdBAVRcAWfe/IR884f+Tv4WI+gtCWuD1OUM4jpEKjY2CP6GxlxpPfUpZXa/aRzK7t10paOGdF4e4E6WFwKrD1Y9MOM29XN9UHhdUFpVuqeEY1Zo4VXa7HCwOw9T2TGHaujOrqH0dwoV8pwyMoMg70PZ5igy/7C/shJ8Og6J8viGVgAXThkeGYvTdNjGfY/FOc+RJnsbTgSnp2a8xEY2NQsOm3GXXoagsBNgt0wR6dm+urdthgl9qmH045XTjZ0jrlmGzYjMbKkP2iAokCas6Bco6HtH3X3uGVton6EQvRq0sQAhqyNd/+B6yFAVv98cqF7EuSeCJkXf+auznO+TfBsbcoSiV3l9IFGOn1lTV9jEhFkl9gZl2JfrAbyEfAi4Lx2n/XrY62GF6pMfBHN0c8QrAu2AV1fgbGgkjrr0BQ8BASvmmqmwnge/HBBqrTIXdWL1ZzRqPoWkckjjg0ZHAlxWtCB6pxCAPxGUqFF63PeLVOx1yxWUgNUy5DWbxUxenM50LqJKz7sJqREq9FHB5H5eFJvpTDE3JOFfNjUzDDMNDvH3mZQgrDQB5/sidbf4HKkvWUpNpPLdr4MbRTIj8kQKVA6MBVK80sUdwiWUlNFk7kvtgiIAYtsWwLha+FceRcllLBK1Cz+PasA5OuUbd2RTW8ZNZPQifTioFcGr5Pgp3vcBxUEqwPxQBVSKF5njj+VR7EZAloFxEYmM1cx0yCsv9OS5OA1QGMhJyBaewKGIbc0wsaBHZkezoH5ZuK/np4jvQnqJEUeAmgEER9AUj5BLEkcZ8tiWn2jzPUcMW/NvdsPvbA2qnjyxz81kdQdBjgq0WMu1DElDR3Ajo3xMPMODPSzst+1/3DQMe7lBdxpLxlq7D/kVDT5pfOf9eiPnb/pgPoG98jHzIgC51rBfy0v99SofXQCBtfpo9iRbgFOJapypQmYwArp5lJ1EZYPR6hSYvPT5CAUwlgm4yjQ8aBAhuA+wM87NmMmVWNQL5TQGt1mMQDHBra3DjuNvz7u6JGqg0LYU2BqYah1LBONfZckGPBiP6Pqd2eu8IqXOKC3zuRf1dD53u2rxt0A7z4wPANqFpPtR4F2a1BEITdFwDeS2yVzPhwuThuOe4iiAuQy44DbFBuyRwE7jvWB4ZhDBSpLlJyMzhEot/a2HLHaQK+gwDApk1Ssdt7PJ5cBNmTLtkHtJrfJpjODqjL6a+ybXajYvMKw4JF2RbUVdFqkpvrHCwvMpWgtgUaHUE3iSDc6eAecaS2+n9eSfanGsmEvdg93R/V7Q+2BTvkWo0l0Up+HLpgZ+HmlEhcKwe2hI9xTjPK/GNjIqJ6kuYSEOERFCTGEWtqnOVUAzAgUYAH1tvdejNwHic/kjJtZ5O96NoKW5x+JFCTiCYU2bqwo8ZRgHVHNwZ30fFiQ1EG3Cn70DNktS7n+uZA/gVckdahN5ISB6c4IMIHTjTV2ki++dazMGbcBabuDxwY4XvYDMURuPzGqIvfC/lA265n8HFHBUsDEltpYy4hwVqpVEGTjYh383WHW6Vfo+oFTeUlrZAAnwlFkUT0XRT8GBvZDTzxtM4l0OhkCWR1Sc+hXZlGes6jR+Kbx3BeCklsk4zyHLXjgCjxZ09MRNrwYpddQufxPbsXEqoVAIo7QyBgzcusHiNeFa92gpytXwxYN/CUqcU90oF4kas8rjFb219eSnyAguKK5JeSQdZkhZWRv9glv+H0OT8EGf0/YOR725kCV8DECzPKPOXYXNU57n8uJD+Ov7Hx5umOvlZljmydFv4IgYswXtbWBD2lAZZjKo6YcbvBYJgSlLh0iif4AXrA+3AenDeMN3tTD+SOUzjNj+1eFtRydEW8eJjdxnHTUt9sRgxSSVkcesj1XseVvKhXnn5ko9SWuVAbrJW1I9WaQKhNpP+hqOqz4UPImD9LeKlz3xXPGpwQCLMuKOWlh/ngkx+IV3/zNQOi6QZB7NXp8qSZNL9qnKFXwnqIJAJRIPfnGrGXRWEqbulAIYe2ry5V5xNUdAxQbuwmhqyt7mbfWk6M7uDijl/11OAZTosoF0qabFUV7gbSXGOsElnrMS6gkcB/oAdPJOJ0pz2q0JvS/UkhbkMM8shZmf1Iu66F+/+GwTfexmGwQTDpAu1AJoRQ6Tcp6Uks5sKnpKC6eOQB3xOolvcRqoT3dg8XUxfarw9JlobG6l+3V/Z4wd3mt7dldZgJYDfpFeCvI+GDCLr62ZYMgIOXiZt1M7u/Br/DOghK8jnDRA3cgnwvoJ2jQ8aBAleA+wM8+yVDKpLChsgaajGMldTcni1esljjQzpiu4aYxbrxCZGCqg1/XM71gc/Hy9CT6XgYq33VZo676CqEihTbnft6eGZYecp7BnL3Xw3P5T5JSqBCqTF+djsWePax5ubZ3sROk03O+JOCntv9ZS4SzdrSDYTB6MzFo/T8amr0ymNy872M+bFuPE3yJ4+yOJclCUycS3iIVKPm63hpLswBsBVGBhrdQ+ygn27gCNfCd/4DfVznE9muIMcmORWGJg2zG72ZjfW2X1dLCvlBT5/c0G1bSYKpSZl6BOfwWr1zENoM9EF0i45O8ChYMeBRoj46zP7xnxu52SIc1pmuO/0oNPLAQkg37JpsuGdGrmNET+ksYjCgGpCukJuYr385EavGlu9Fj08t888vYyPu22Wm7ZE/1fLvQFSMPb0nz7af7SjzpFEEx+PHRMUMRy0jtxi+62W0DOpFAWxFp6rf2CwZCVYAWiHqGqtGKh9yKP/g1vIHNZvf8RwR8nrYTnfFxd9DZ1zuzzD4TCy0FRXul06NIElXVI4BJjTOZGO+PVMU694racWg7CCKptlbeab6+0MLbzvrLjU94QmSuNkj4yXCY8BrFftA+naWkUv+AWnxxfQhx7M7Yu64HwgwT1OqFMyECOD+t66nNT3+b6M/7WgXMOo1B8DIyuY1FCqZ8/jE0anRCKd5CzOsqrKUXH52kjEats9uTZfeGQ3O1DnyfSspLBXui8WanZCq3sA6Jx+rvYDV285X+ml5pYVMPpmOe2bHJItDdkYgt2NiS3VALhIX86VgSCzVZzN/n1pMWXfeJ2qsf5RtNvu4GA3WIx9ZjWW4LhBLd0ZCjrVmuuj2wKY+UW52UxyhKkQGASRIM9BAuYfzLkbDxnOMJvXRdDR3+55bgYNaKZXICRdhE25ZlDjf/Ix12zq3DJgfMPvkGqShRBAc5BLWBd9evNf7ZHT9tRcI38/jReHoWwUzfqyIwR5MVd5TZbAJ4Gq/QFQcOdmDJpICoqhpOkFPh/wOUdffwSiYK6d8zAoEqK/f90p4XFhxYp3W4gynOAMYofKoqNytrVEuIyeavyS4SQeFE5UBPuggCJcKHM6azFJ4hw5/wKh78JUe1ijnRiDMDyWyqyhQr47DBOO+S1F+RVqj4/O+4chCm8CgACmtijG/qgPKhYpeTzkpic3QRfh18rsh229wa5amkOZvs78abCknIo3Y/N1a7GDIgIi9Yg2tOgOaa4TzI5+CJYT6mXO4dlDnOUjZdgThoYGkOY7yGRzjZdFgkhT4hN+jQ8aBApOA+wPv6u5uQniOdl1LsMm/dOX3JeDmVGMucwXboVivcO5gVbi547dT4K/XbiSrYKlycIok7689KkQtVPiTHaxee2D/Tt4KShcRX4WZ9F/BDKD9JAiz5RAonvv8Yx4eFVbOVJFrk7s7ISQdWGTDlPISV37+xmBSxGh8wwNtUf5p5S68Fs1PcXhAggyCLhmZjT1H/PFVJTVgvVcsuBzs3FE825ZnEIS2wy/0J21CPJW9r32ccKZ5bLWJmvrCfOG2eG9TQHPuG9e2xlFvER6/UHMHDE994lOOsB/RTdQ/3HONhN7eaZpH8s0rMUd2njtp67DeHduom+cxzFKWjlrCkd3qVbUQxX/mqtDbC2vK1ncfSI4qk2NZeI5vaWc5fmf4yEtGlkal1wo75p+/sReIucUDYjVSDxencV/gND/mgxuXngMijPGfrT+eh6pismnZz6aJHXi0K1O1JP+YuvMSWs2w8jZPv5AjlOxpLbB7nITCPnZJl3cLDIOdt/nWAKCPLECpQ5ztqw64Wk3dBxnzm0J9Pj3um9Cm9A3dn+UWor0fkDAGtkZrW4lO+wevYgXhIKbo2FmCZ0VgBn0FoLVbx3bQ50K6T/UqvgY8m0Xi/erH+gxIzf3AqRL03N4nP0ZI5kG9Z2Krzl1u+aGf77yOrB5pQq+XdMcFHK6VY/dInw03JC0XHjdchQMbOcWGxbRkWjvI/7XFixM4FYxf7+zUQ0M6lt0fPoai6vWTcgqdT1FejsWcDthHxpct89MpQwhAGZQILJMvyTPvgg15jMRInDdjqqjlOz9JkgdaDM1OyUXgKUD/ZybKbEjW5y01fG7C53tF1tkSav3Eil4ZAdwjVM+XcEKPUqeGPBgly7RDN8x3FFLHFyjrtmhITYgTOVpnch+VNk1m1A5iN4vwu8BNgGXoltzcBh22XIZkNGWxqpeA9qb41q7oTatEANnYqAi1Zk1/EZQ7UbSncHBjFGl6iUJBCDbWDf/cvDkLL1Az1wnRfU3w/GFJjayNKNGHjvfx2iTBii1M/y8jby6ZLy6fvCwnh7sX5kc22g1+mNuVvRXCZD9+2obj7bM3RygXzOVhq5PGO1rTNI3M/Ay5XsPxOT9t36llHNuszAuOP6dSDHoWeCJxSSbPvwuC+yJwt4iQF9cLmbEgf1KqJHFMKbkfqCRAIZfh2wOdtxJIqUYqQcslZQBJ9B4CwSPG+PpH9B/XUsNG7nyT1AfbD0b0Mrx1deOKKAT69EIvoT06GYNTffKXPqNZFw8LdfK5DKvjS4FrAjJyQoKjQ8aBAs+A+wPxk3cpMK1v3zvaHTk52FCE/VkIyqBbJR+IhoIu7h9G0tGSpRK0Owr7diHpTrmvTnfARr3s1xX3VzRiqmsHZyKZrUMNYuXMnbXBvOGL+PM13fl4h9h4kJitmXouOChe52x9haFb8/LorDlRhI6jUdgdzxk/9StdWgQn9MEPa7hEy20h4/sW9y+KYk2YYLKVmzj/2q1CdZL02+lsNr8cTyFq7JMUv+CbZq+Mu5vg+UotYG7LFJMygFFN/iIXLgiWYmzIf/8UnhWyocAqWbX0BCA4N8Vu+UmttHn3J521UuiRBhxGtK5RLD+flwi8CI6ZV2RsUhjy5CCiJchGl7CpWtR3bECUD3uNfglgeaylsGltAudi0cw91Cp6a+75GY5yrWUd9N0hnNfaGdbaNDYP5tsjcMbKP3q9zfvdft6NUoBykVOYFNabpqJUmKRUnL9T1uY1haFnkKHpYL+qyxhp8Kq3V95B4qRshR/X4r2POtV54O2egYcPXPnqurVmDCpQCb0KdrOL/Qv6ZrFFOaD3Y3+4NbCRm5qQE6S1gIhxJ286VtZekNeLJ9LlJm414RGgz6sr2afQw8Vmh1wsFxGZ3pVkggY3cgmhY6C/5lMdSoGOqIj8W9l7N9rGIIn6I5dvTU6XX541C1wQZbbXKo4sJ1EdIG4zvKVG6HSyyEjst3DOMr4+n7q/MvAyDtrq/3K42fqK3LiDJsIw6drIKH6oteZir2kaFmNZUfSU3pmftmj6jh89niwtPb3R1jErd00uOZzjINuU5KqVy7+QrL2h8kJbFA6jov/0/SN3H6aJjxqZbRadIBON/ic+Ys7zUCM3+63Pu2jvMsiawXAKHvk8g8fD7N219m7kH3VIwn/hH7fczuYlBLV9x4hh8dhEPcknpjpGgY5eDMX+YOeHchBpRDw0VWtoTi4TtBeoaVk7Wrq7rx2J4BOINIhwAGBPJAun/yBOFhEfBJQpR7TDfLDZDvrdB7enYIGyNdi6LbmDvWoWPrscKEBDBNYjscSxjCvnYNVOhH1QevDIZgYysLKxqhpRAu6/stdW2kB7NtuGw8NZwB65eeq1aswIfULoRatR79i+OGyQAOl3JbFzsIhYfqMY+Xf41Tzbo7KZyR9TguidpLbZls54lVM50sG8oE7fWm5XL3gWvCkJszDXUPJb9qYpse4HYjRQGMyRjCbwC4Zpl49d+Qjqk09X09zbEjGV+GK4cWPNB/w+oBX7sJAPdmVRWN6sLiBtb3o6M5MtZTluTzFt1BZ1MDY5gNo/wm20hI2jQ8aBAwuA+wNTEsqVkzc3Cx82tukm07ow1WsId60b76Tw2/h2S4Udj4pTVIShz18A3QlP+VYetbYDlJ0S5ZrX1xgZmxE0kmsM+3d/KS7EDeUZang4sd4NC1g3N+ipTyL/3Q2ZRLpQTT/Faq8rsrJfwrgPe5GYXoZ2OOAJgeH1hAGlcWfWYDmZN8l5JWVvkfN7B024+ps9OJ1lWHplP2oan4KETso19LsGjTCwm+giUqusYIiil+HFX2Zub3dkC7wqB/38t8qzczSZ7CuKGWPl0V2C/K1fTWX2hiiosrL4H9WQsAdgnYE5L8NiitI6ebCiw43uTnTininv9MFw/yc7RfsZJminAAFrDmHO+azYhMZ0kCbk9qS9nmlLobeptEM9zW7bbpRh3ySZd7xXZkxw1vv5JMrdrHl+zcPSLcpEVcdkDoUGFWmQhzv/TmFl5jONqoFjqQpB+XbTVeIR0vO6Osuy8goO4d7plx6CMS/W3Bb+t7IbjCDMXiMu7OV3qJe4j3qRa3Z2VJ4I6SWiFgXdwxd9kl7VDRlTQOdObOSEfA9G+BP8g6j52uUbL6vpSuVLs1+mgHUndThW8Ii3t5EK80K9yvZ3HMXS8Fw0bpw/OrJdCCWliLEq0/n1Zvkn3NjN5q5Zav1h7oUR93/3q6BvCZUaEKBXX2d3drymCMblvdgZTEY4GBo3n7lsEi4/GtK09zX3N20tJBcdZ7wbflLmlaTWLABcvH4mYWS0lQffcq2pgTXtxtQhgj3er8ejVcB0m+qADOwCtdBIq/KLyz4QRhPAhnM4ZG2gPryCj44JjCoMEiHuXcZm1eWgqwYRIdGPm2TIUqgkTFvIvo/X188XB1/uFjod/ZghPR+MCZ1DqEmWCxoai54R9OLxyv6isnFHyP+JDAdoTm/MdOOwHiyYr1cnaI0iTejYyq3BTnWtRdQGvgi39IW9wjcfiWEUVrHkYzFPUTf41loKI9oClS2ZPY5p41L5hV20ARRkEtqE26HdSPtpmc4GMtUMxcZ7OuStlgUoD3VeVEW3hqrdyUcDM6GX60SysDZdu8cwjnUvprWvyQbKR1mSHNlRhpmTw1hIjuGaAO/Vjh60mr0eNDNgZceOVuaEZkRraN2dljBRDVmmSVdv5ajV0vAOCEQk76JcxgR/GFBI4LmfMPoKASfKjvhKYLv7/natgEs0pnLMDrBo4TIvUR7VdlxQyaNkL/mH5cHrUQvUkN7wpqU/DisybgIAfz5GGDxJwoL+ffv5uTv8qX0SHPPUgIQQqaNKis7dlKTXx6dEDkmjQ8aBA0eA+wNSneQQEsBsgfSJzuCpIdgKZ73VKTI6HVnSN//6by8VvSeK+va1liRlmDDwFvzYziGI0alQT3D2on9wbRSCCIbO9yme6YROzejMFWh4pD4ok2Z9V44plc2V7L2PxgLDXogd04FRgy3Q6NujVLYxEh8GBz99D0izE6G9vBm8gBME02JD1f97go3f9prsrb1g92Lt83AG7XrjLsmbkGFVJGE3aGgZFCAnbdOQmtJZJRQs7i3OY8E1E06PD0GtwFan3JuT0rOMJGF/SHMOvyDdKHnJD1oQ+XPWIZoHBgRMNEK5icpXdSBhDKBMQIBC1P4MHGsQyWnqEEoDltKR7M+Z9a+9OFh2gBsDCit8irnAOT4F/Dg1Sl+5IHonsjKjDeh2yKOYvRWujAORd8mJD1WoDRxiUBSQfDApi9KTc4ElMQZiDfFvrnzZLnrFQvUIRf0+at9z/5qVDB1PVGaB/GS6ScHMBAgdX/jaZdMYmxco+xheMwaq8utvaGJX7rG50b7AkJjgTmQv4KuCy5HymAFqwddeihaZhfSJ+KCy/7Ii5gdjn8DsAT24bnrFymMWPtKwufxQCe6z/2wk8k3KwbOfC0WuTH2i8SucvgQ1+VwK326f7pzvDYeoK6qKtmQ38Pfj77t6BcbFTmyMGwlr6UTBRbgXgC7pDWOn4Li8PvpJ8JjNN1KfTGJ/UJfIyJfSJJuNM/yl1KNLQErFVzT0P2zrw8AJ07X9sh5NVIX162OQR1YOY8Swtx2Q/3Y8QBvuQ4oRDDIVJq4KV4w2x2wqEUSnkA4Obesna8gu/T/VKkANrmzKzNbu3+zxi8EDm1yyepeXlMW0KaKr5CBSQaCXVqhG1zKI78gDJx9O15hNPdK72nu1XhQ6sYaLBghxpPFmqY1Wh6UKBG4k31rZ33WlOFX7leokc+MEHshHEcF7vIGKG0MGh81eDgjbBD+YBGELDNkN6B8lGVk2c7DT68o+YL1nffcrgPsa1An3YWSXpnrrXIFGMMD63/sktB4iUkdao3ryaxs9Nah6cGs+wmzitXm/0GdJHLlZJiTmAnaaxCc9EbaXuuYdvAXkBy2+aslOe1QbOlyYjvqAl9+CTCE3Lf6uYz6MGkQh0tUKwKEA+loZWu7yHtwdUrsTaVzZHHXrplVd6YAMCBsO+EPglPGjbZyFY6GXx+wiOMQHR/+GO+iwOCxJZ2uKagOAGwbiociGc9VKDJFmx/z3NWD500Fi+WYHjeTmnOX0s3kWHuOGqjXWbNQOjA44N1GFfH5/qZrlBGP4IoijQ8aBA4OA+wNTG9Wn5wAOZ5TVsTIMauAzr2x/Pas0Rqc49kz8XtKaJARfFD+T03qkS2n9cH+YumZOR1+crLdKJyh1czKXlBFybBO3f1qDNiW1hJCoK6y1w5qyzLAzMQQniKDV8QgnosU1CgtHy3euinywh5qGNwk55oEHPc3REmBpVBBG6WFI2a6dTJQpEFxCKLdWARnbI5yWisVpzV9ijVwwNiygc2DbdrON1wN82HNCyXQMxlOEcQVGyEZywBsVl43I9boBzGWtDHgIkH9F+41Fhn0t5N3Jgjfj3DDMp5dBmiSM4/Lfk5n/SZwfS5PqJDvRUAH/sabHB4YrUWWE3qNdvJPuHKESF78URSflJnVkdA9wdhPYMOVUTTzWfdoVHM0jJtgYhF05mHR3UXgwIhtOrL0/SymipSZthilLOQHL5DqlVmQdTE/be4zoIFBHSNg0mhY+AgYl8Nwkt8gBp+oiIW7oPQAMaEol+C85mXirTqHp08UN+5tRbXCjc+Fh1qOBdJim6qCgt5U2jyaoQV/uDOxz01BrlKF1Igr8TrE8Mdbmvwd2hIKOQ6IfRKzlSDQ0VJKa337vy8hgT4BZUhezXvksJ0BtkNIHK/mZjpYeSF3Yvi496cypTm0w4Y5vajOAKRUC/jyd06qwUDpqp0ni9KBqDbwj9jCV2gQziQ6E/4hZK8K9QDFhqkHUJJKyWy/LPG8UhKBlSN56vpJB/7D9Aei9Ky+K0Y/LmfP6axNPemrAufTdDYXJw7D7zr+jX6FnTYewRF8rQgPC8B+41GBSJRa0Wpq5xC9n1RuuOLrUT9s1XAXEv300EKTbUYUGFK6ODpOOuSvrC612uTuLxpoMiDaecTv7POvn8E3zjM4VcEAZJm/jX0HlFy8OhxcJmBsJfTCWzV1sliGK93VFhi/Pt84bwe8GzZJKL7I7D+kNqd2LJnxWiz29I+73OC2322slTUuyJQdgDiAlyzu6PGMa86SqsTt4ilGsRifiZZGV7FqgJwWG26gprHhbhfYIjl4WeTNkIktxLZzEifahDCNEcgLz+YIQ3seAT3KWY3uHGYIibtgigWiDEqAwNZrSp8+MoErvuIL83eK2FAmOaOYtPRqYnlA6DAFfS+qPz4u+14E/QFq86t04BYuSuqC6+S/3PQDKKYa+5SAtC9c/Q5xc7N0clwbdiEQsUa4jF7QJV5q8kuRxoIfa6NVpqL3U1ooqkJxPacwyWrYbvmO8YPNt2QIZI20V7m9eYqEqX0BSPOB4RVJ5iWW0GU57JJ7liluBh3D89lSjRDKBA7+A+4P8Ef8dPSHShs0b9E/E3aU49jNi1IqSKqkjP4jwHx3fXhWmv8Tcg9q4O40V8kPc7pMEn9eLxPHDHo4PgqmuCKo7f8gT/pUHC0TctL2b5g5v+O5NOX/7z6gMQ/XjVNlBAmhuxR5rtW2ALvtjmYHzxSOrfviGANjQWm8eLJ12xaPlBDObpVc9QYLYnFMwFazHW6rrepexwJa0KSHJXpSKxxACx3r1lSsGt9cK9fouvhb7R2o3Ap/DA+0HR/f/G96eR7Q3CjiMZGNgrGidgqFX5yu5Yd3MlJ3yt7P0yLvJWo4tKhkrstQo4Ltgt3zQ0iWtqmOEfm1YKWStkjLkgL6PZrYtm18mmzk4sFPLpPLIp0CNl/rfK5XYUvBmwvm0ZzQEVvU93ppe1NnKQ5/ULNmgWFh0zNpM/FCAfwrh8joBiWx1AYPnMxTv5Qm3m5d+ERYl+MnHqfACbJ+3I2bLrHqXsFLEnYsI57XiSVt7Y0qIKLNSZQmQQDXdQcIGL8qrOYtfDKJCh3OaW40+Yylw+wEFtZpGybbr7eg5LCo8uy99EYHuILlhInmUIP1Ceh03QS1gZRhl10PnC7bM+1N3hin9SLtG+DjyNH6MUvbuCTASTBWKy+2sepatafUGz/KbgsDi19Txqq1AVGyAyWRBLJ720dbrQ65IFVL/6h0L4HUcRFttH7XJjZLXufimlHFk+zvBMXNHdBjgdcTl4Z8inDCx0MllisxMryJ1k6CteMCXm2Ee+mtxJD1vXnstKCOxmhnxuxx55JWh8uqPYNJvECykuh5UFL2BIJIjJpoxDpgZRGIdELfJPu6ld6L55x7HQ0L6Rj4XwowvR2KVphnUAwJNcuLLDQVep8LUS/mmONREn9FHd92fJtei+oUIgStcYiaGVgCugI4OYLefz3YvOVC2f2Z3KbiQGExCjTw9vrwXdzLQ5jDPGZoADC7QcktCFLebYYpI2LvpYG8acNgwsTkuMQ/Y5wBu7yxqnTRAj+n2QzQvAWZwmbvu7/UklPh+mv/G3aRHJTfi+IaAdnl/SEH20hF30Gjfm2sovvBBQfer6W6TGHb2Yijm2a8eCxKLlRxZQwuOxcGR6fhwh+Rs6dAtgDMewD/38viHySBZ1xUVxEV4/PkHjo6ZsbCOGDlp7C0g5Q3Grbd/jndzmo/YeX9ODoUaeK78dWyUE1XP3SoFX/tJQrMOSQOwR7B9g0JHO4Cu73WmxV7A7KNfhzvMWyMwSPjFNEIUz/biU90Y7hQBUZ0lcDBVfPrjinpT/pP4Qhhz07o0aq6hPJ5T8xX3cNqZjVDs2URabCG6usFCzPHLjPCQaMTUyNnianFD5yJWxh37vWjTUaSUyUL16ebMFq8kkYEsiYMjtnGbM+j0JAjChwILvy+ZE3XkftGlyxWzeLJ5e1fClerjIA8k07vv61ijRE6BA/uA+4P9D/028ZUKTYOGyOc4ArkZkqmw+DNA7kRJo9x5SwNsLzyC7U/pp8BHIEKY7QFjBUFQmuCG0ptgSnc+8s8Mn1Uw2a1KA9Uo6sTqcZKy0Oi0OjSZ8TA0RIl0MTvInPRnE5HS00t3DPKd8ioYMDs0UEd0j3QDl7ciUZrndtz29x9jnvZqO9O24UPrSZaE5DYg3nqsEtMoRVmtchTNWnPqWCuv86W1Nnk9qU9uZf5KQX+GAYlCpP08UCoxPJQtGxevocHLHOPS35d5wE6zN5gGJ+BBAmvBlqokNo4c6wrNufa01/q0RdYTc3gpqW1SeHGbFHUOHp7HfaypSEU576Zp9ACB9cn4PXfAWVLoJDfTD/dInBSJZQiedzYOhyWUM0O9rteG7AkVcYMB4A+UtBo8eSG1FPPrX7FTa/SNxBQWjXCEFwaEhjVFyPSK14AvnRXKQygj5f+WXRyRFsEP4Dur1Am5Eer6LW6Pk+7FGBnGLaT4RaCQL1L9MRR4nK47tES/4IejlRbu5tlwxVvNHH5H1xS90z6xUPqiBKjL/DAHb4Xmw5nSGk+xejwTQ2sttmVfjbPsMH+5F18Fy0YvcT4s9+D+hIWZMHEkDN3+Qd4JO5LlyZsiQB7X7J+exgyzFy89NdSanXxmh0SIVF0D56Nw2uzmRh3M6AejvAGkKOpvsZKkyK+WxrESgI8teRWdXbYxgHpv8gKEZM2jzxzycES+L8q/DiAe9QXz48uvWJ0VrZcMMRpSyj/rCmCqQYiNJKfZCzIan4mI+FONnZ125CGNuCU2uvXEgOp3T1PkyQDwMFJz9gb7Gp2V8Ny0t6wypl2ql1kKBJjkrTkEbHhUelO254WAbuBRLGAsjYSzrjM6zxqQ3DqoSewxE6i8f90Zwm9zYmnU6c4pv+6C+CIUl1mK41wpRNCXns6ez5Ear9KvzRdVmGEq/8/gcHpHSNRIQnNlqBf6f5nVq4GA3ILgcmBTcMlfKvLSxb8cdWws+zIxcJSlmJ5Ka6O7+2LdogzAYcZMUxDt5WBBKzdRnsa65NweFniDRhBa4mMHLTKsGaKyCO898bORQHOba7VH9pLfd4F5alJlM9juCxFhLC319reK+MUokkoKZrH5sCZ98pfO/UZzmjtJr4eJO+tIGSeNixlbe+xSk37cjHcwqEeB7Wv49/LdavmAJPYocvtNdbFBvfZnJpEUntYK3oUPXxdAFuQDeu530ty1Yab6A+J/9GH4u4Bw8iaWDxCXijzKcR+AGAU8/XMM5eiYrrTt9bGmRLgL9jtchL+kxKfHPjfBL8+LLYngFk9YifWEz0e7fEtx9Lka+g9qusln0qg6h2o47Aw2LCqZ9Xb5W6CwvvFmR0tLYsW9XA2rHlJ6IAvQ2FZMPH5LMT4tuHFuNZIEIQrf9qZ+7g9+5StQHhy7Mhsyi+bka80i6C6MmmbXqPZMx51dHOFtbtRsItJGRGato0OtgQQ3gPuD/Q7/Dj9XXTnfQwCLcMpHpEQPTyuELY3KX/0tYqTGYMdnckdAif0Q5eU6SpmcAPavq0s/yC3iRB41TDCtDzK798k7v42T5668Oj58JYiwSErcoq9e4I1oEbmSpXCQRuslh/lXNUr5am7VE4SZa7HxVlgSWi13GvrI0oLTlOvBNnpQCpcJljX9dRLMekcPG1Oz+z62jV8LqwHtWKZ3/hgFi/xcUAvU0S7B3/0xt0oZHW2xWlo2VBjR10AzQz6xAM7EY6HQ7aYLa+JYLBQI9xqXw0v7kCKaEgAfnJi/BvdhM8xNU9dctbTXipwp8jk1VviOB5byGnYKW0e7ovrtEEsGZxIR/RI1x2hhZGrlCHO6kfSgfVuor9k2js5TdNWoHFZz9PpMxc2WwVsNLWn8H30lfsFBw6i5V0b69+/HMup/52alrcVxzaM7XqiHHn4tjEQkq3RoJHZNoKjFWa3ee0dMIuasTPhVMj0yOQbg6khDd1XqqybhJfNwZoeneI+TPTHZSqBsutWm5nS4tkhjyj4Di5+36geE0rCoN2K+yj5zMtNGB8u0tHkgLz9TGRvbH8OW0dsoQiGNkPPrwMm5Nu7gcLmn8f3EM6+0jx0Of7oSNDAKcCm7VkCHq0nPjqtbfXZ+t1tkNuuaLiXF54fAxQ7S0ZTNGApCG6G3DwamVhh5PqL2nqzNMX6Cxf6KPFqmcnosFkdnAykMXOHW+FvS6vt4Vv45qR6liz9rWJ7kSw+go++M+qmUzfGFcfVXfwN5ZOtBSurtqLTrodFh9GA8JE1L4jOpS7ucIV/ZLOFHXzDc3q0/M+JNLpgNv00EpP4g0RSN8Uwzrc9q1Crs0W8HRIKn1GmTL9py1gBXYIiyaim5jCWCa2d+GpGZpOQRu9fJqVgzpoY5g+fhGWyYJSrTcb2wsTsDIVOrbwtvvpgSyb7eLRjf3Zqva1wa05RaOIWyorFcpJ1alY+8k7Rmzx/9DP2LiCZk3+Ffq653BhwTdgNnd5qgj2IMAdVXIX4Cs80qgjOh8slT4RmGhGXGjFfp9Rxumooi1vkn2lntYm9a9YOHUF6eJfW5SYH9L5YOUN5k9aXlC8dPBxIzfckgfIMWW3ZZTK7YCnBTWzts95hXnlL/2LgVwCLS0GAL497jNFMsw60HobUzZJvV3TvXpOWrS20zq+XiEzxrp6T7md72h9RNcfLRaupxtkN5UAyPWVvHJ0/lgbr9BCxXa1/6afTz0Cey31XVBwJmVImjRDuBBHOA+4P9DvwO7+NF+yCbjiLPQw3Dpd8YivSbie8TJxORWHg3kew14NMI/5KQEC0xclHHw0bdRwzDSztRikumij6oztB7HB0MQayG1b8Os69GTw99Go7VaqbPb23i0vmAB/eRml5M3Q2i7heKFUssLxXRqKr9FKoJSj/XYSXmIWiY88Va5WfCM9W5zNUXqP0q/4mJA/i0pqZ/BfT/SoYS5TX3DVWDekZCT6udHpR/7Bd8L6tjpArmTtKmHEMFkRU28UGNiABkazr3jsVkzIAVRDdTfLB8xI85NUqwAWSg4iHDBmrUZhRvp2ox9LB9Ied6tiEYpyoe6W7i2IhafFMaiba3igZLnbETybl+6oQVdr2xyNYjlAuEYPeG1aUWoaNk6c4QuiSvMRe4Xv+RmotrKB/2234H2u+TIxWWzQSL78mrZ4y/CCys3rxOruqE3cnDMGIcf0QQKYrzrRmPzcxAIO2AZjrhkIlfQxmFcaxs+wYJEPRl4Bz3jM3LFzvuojWMCl2xMaBjHoqXECFJUXdl6QSQkPYm/UQW3/vfTqK88c0EMXBbvvZko1XxZGHsg0MSeOn8rB6bnIhfl2sv4AVWosr7v1w6XpFuFoT8K3h/cj7/sn1rLGXSrZo9u1Yw1PJrVwN5UsD97YtchEF+URk4xi7XQCwlwz3KuL+UkOpWtLJyfHmVl+pjDxLHd4cdjNG+PND8JiCe8Ae1O1wxkAp5l3OSmhkbyEJFY7Je/gggkgZs1Hx/lxBrr31Aau+5h0L0TjSTFQivo+4Ig+Eockb8fxb7gunhbIArbtdat1bBFGVzMYbwZ8wWfJvh1Ga18DAd1Hl/HSkQ7Lcm3zNzfTITXotrPFiWW4A7S30FCP1r3RhfTyx2t5WXGo6Z0gcweB8upRMq4cEw1heNhIZ9AUZvy/LIh7yg//Gk3ZpO2q4+7C3emzrCJsqQXiYQtpHmJsmFyBSV0aIWc1lSw41HrnmoSeNrriVJrjB3CXKVT2Q2khipQM471hXRKva7+dK3uI5FR2vgOsgEU6iYp9pb8PT5kPaIpMxqyUdHGSKOV4EbJnXwqUQGx4aKA46PwVpMUs964tnQKy773M9AuTTlkAn1j2LO3my/HaPBjB3ZeGEDPBdvVI6v5j6vtcU6vlGAmOLnU3hwwWZXSkYg8rrh6f/1VdOlmqJ5+rTcUEcJUzBee5fqJEMWXwF0/ApovwrjOR16R0OPNErJ+trZlKdu4R3wExZ+UHjDou5IAxLOeW/lFJS4DARPq6sH0O+ar87Tuej7F7227wSUicDL6y11Od4+iQ5mNycdfsu/PqAiJEZCRKntKklefWX3pSePyPjw3T/kG+RH0+F7dKkmZytfrFAmSfdd6Vzq1xMThuJcreIY38IyJUq8To33CGzNw/x2zI71a18GVyGpN/jTyHvAZ44a41vVZ7j7R5I2mXmjQ7KBBLCA+4P8Ef4Oct8IjTT3SkA+XxulBbL9HDwQmim8Y7akC5/4dvQkuhF+xc496vtcNn8jAClHRKJva4YJ9uVaXG2NY6tqzPhFiULLv+qgG16RpHLJ5Xsh3pHrAWNBam6ruZD1w2v39ol5C0iVL5btrf3Yza6SGjNgU/B1SXS82Pj1t9fx+h/VCOHLGB3Jg3UjmTfdXodXFNYdfyTHmd71lI4QEE7zLnVIVZDqnF3QQ3MoeOfbCzqLlcjvtWCqR2QrmTHQdRA5Z4cOnhvzPFnwDTYLtH11PwMUNtOgbLg1+SDG3p88/5GaqOtmVPvgRUfLDZPW7AmdhybDGaZO3m7Xy+6gJEa0y0mLN7H7GcM87+GMfW5Eyypfdx8v1zgILcbxSjkBbJOLGC81/uYzxBvlOZxKELjyN39ZxzE8qw9w0Qbb5lkGo99NW5DyPK8Dj1VOJCBK5LRFYM4nni32enhNv+p7tKNV9w5pCLB1WumGy6nI29qTNH7k/lhBDVi0EHuwG49YwIPbW1zGsWUAhaFZey5G1b90EIprtsoAzCp9fmaj3Vypc8o6VVxm8lvefonRw4rVlSVUiTK6p/sv2zc740YHOyt8yVTAfOfqWSWrHL+BpzARsMLRzJB5q7CO++jS2n7M1rnTnrZl5zdjEs3aiO05pganaereQ4Zbuep/x7Tk2/uwIP9zdKWoP1SWwemQPGpK75JqgcFtpPZM1Nj1urtpU8ZF8c4bMDr3gVXH8n53sACjEu4j8WKvozKkAURxgR8WWTdWszGd5V4ev9c+QW1XOcj9FwRSMXT9EwCDQSUKXzQOCsXm2SE2GnnSdcsEzP+4OOvNXT7IIFWxOFSPPSoLr0xaf6VUN3w8jXyCtFDmKuTTl9YSX/ldCdqXmf7kcY27j8wkozCadpHO1jWOHNG1iRNTwkodyxO4eYtMdHhWGlCV24LJoZWcym8HRLxdn59oK3VGmLD34b9mfXLIsAkl3rGcBs1Ecmaw/Q54py8ZHqdb2D1RfkyqzJEMd1jUIuJOlyUMVYePiXGWrh1nIohyj3aUnpwDUizUU1XzqZ9Udapms+2ruM88b1FS4/qKnQZlQSHeB77Cl9vu+P5rBUIrZlyhGgpHXfK2K5HKdIr9f1rXrJCCEUEfkt5lTG/94ut9M+qlRKY4TDwQLhvjgqD66W04XCy87T6Y5bcmF9URoYBFWWuGM63wYsop5zrp2NHWNTIsmkGmy4M43bm51nNV2uBgyumwp9Ilb3JmHFTQo0OggQTrgPuD/g3/DVLHCQIt5wyCpX4uX3QsY+G/baZNeHBcjF23cq6ImXGwCrO3SStlgqoMbq1ppU/nEQkIoxLtkG6aEmcblIP2XOPs0KjrGNTLgPPJNjCApOCfLYStdW2OcjJz9o1/lSkiFRCVt2iCK+7RpIB8eXm0okMQWqb6IutMshqM4aLLNUGLxThZgZla+P8Jwz3GcWu9cZm9y25RpYgBhH3jUqeqSQbmk5xTbS3rpUL7V3uklJ0J33TAr0Dw+IZWeeDmTU3y8MbZ+nkMGbmnBhtmle+ISktEKNTmy94GcSyuAye+4QeNAWbCuxfRgXnnUnMSNMSbl0cetBLK4Z3w5OwrUis8w4URgvRB+Ypn+BuDgyMgmwNXHHxWkcyZIXwrgy0YyZyR2ZYPNDNfX25pCoUFsj4Eus7ADVtXFy4/LUywIt/zoCg6E33zP0u6OKH8wvrJLyornCf/aslSjxRpvFitXeL1lchnuNJtvnEPLQ3t9jt0VYcVSSz+zE81hSSl6Rd7BNtNQ4HtEs+jRsgsNUGolXS725D2/LGcbpB5zTw0Kx9i3klwZsFLcaK+koXVrMWwuRT/Vdhv0gVWtGRrrXx60hJ/vO9+VMCYrp2MOeHOuVQAWYNuMyFOdLHTJA/fsxa7fJ45YZOCUc11Y16Eq0SvuVpUai3VSKmkCL8kgJrCW+mxNlDTUJLitR03BjaQKO05k0AmXTW7RabX69SXAZykGoi4EL4lR7qF0qd8FsgOzKi4qJOWpftTGAD5+1IP8QI2ZTbz6ATsVrustm/0ct0z/05RMPX/OY9tJn3/n+Xc+CYHBz+fmxuXyA886+IBEd4tR/Sw4DoeHHq+SCQVrWJYh4rzh5JWFoVBPvvepuW0N2aOVDR3pExzmUCjVlDYlHVxrwyHJvZ9R5ja0dJpIKlSiXvTW9gy+By81X/3mEiIQirc4Gccz6Vo8YbOQyVe1YgktRHICMq4p0MtbP6++zfVewbBAr/K3bTL/FG/gSo5MPOiM8hZ9NB+GOAjTsTK1GM/BcWUomOVmVDQ9sEwUPFkp1klwfHDSQAIWgnSAV4xwlWKXpIeyw30FCX3npgCNX7N117JPnkmGLKc5XThSlg4qHcP/JVlOxKffSG96/mCCwNVkN1Cv+UqYdrn57yNpwgROhGAM2UkK2fCH0DmOJiiUR21uBJgf3kk9/uRMQivMyMzuj8SyCeHYmHemcdLN683csD2Fm0J9rXVQA==","4"
"","","","","","instructions","15","77861","0.0-7.0","8ntn8ps5u2dkwvr","8ntn8ps5u2dkwvr-2024-01-29-01-48-50","37010","","[{""page_index"":0,""viewing_time"":37010}]","","",""
"","","","","","image-button-response","16","79672","0.0-8.0","8ntn8ps5u2dkwvr","8ntn8ps5u2dkwvr-2024-01-29-01-48-50","null","","","[]","null",""
"","","","","","image-button-response","17","85087","0.0-9.0-0.0","8ntn8ps5u2dkwvr","8ntn8ps5u2dkwvr-2024-01-29-01-48-50","null","","","images/list_2/timeline_2/8_Cillian_Murphy.png","null",""
"","","","","","image-button-response","18","87802","0.0-9.0-1.0","8ntn8ps5u2dkwvr","8ntn8ps5u2dkwvr-2024-01-29-01-48-50","null","","","images/list_2/timeline_2/8_Cillian_Murphy.png","null",""
"","","","","","image-button-response","19","90067","0.0-9.0-2.0","8ntn8ps5u2dkwvr","8ntn8ps5u2dkwvr-2024-01-29-01-48-50","null","","","[]","null",""
"","","","","","image-button-response","20","95079","0.0-9.0-0.1","8ntn8ps5u2dkwvr","8ntn8ps5u2dkwvr-2024-01-29-01-48-50","null","","","images/list_2/timeline_2/6_Halle_Berry.png","null",""
"","","","","","image-button-response","21","98075","0.0-9.0-1.1","8ntn8ps5u2dkwvr","8ntn8ps5u2dkwvr-2024-01-29-01-48-50","null","","","images/list_2/timeline_2/6_Halle_Berry.png","null",""
"","","","","","image-button-response","22","100075","0.0-9.0-2.1","8ntn8ps5u2dkwvr","8ntn8ps5u2dkwvr-2024-01-29-01-48-50","null","","","[]","null",""
"","","","","","image-button-response","23","105070","0.0-9.0-0.2","8ntn8ps5u2dkwvr","8ntn8ps5u2dkwvr-2024-01-29-01-48-50","null","","","images/list_2/timeline_2/12_Billie_Eilish.png","null",""
"","","","","","image-button-response","24","108067","0.0-9.0-1.2","8ntn8ps5u2dkwvr","8ntn8ps5u2dkwvr-2024-01-29-01-48-50","null","","","images/list_2/timeline_2/12_Billie_Eilish.png","null",""
"","","","","","image-button-response","25","110067","0.0-9.0-2.2","8ntn8ps5u2dkwvr","8ntn8ps5u2dkwvr-2024-01-29-01-48-50","null","","","[]","null",""
"","","","","","image-button-response","26","115078","0.0-9.0-0.3","8ntn8ps5u2dkwvr","8ntn8ps5u2dkwvr-2024-01-29-01-48-50","null","","","images/list_2/timeline_2/4_Robin_Williams.png","null",""
"","","","","","image-button-response","27","118075","0.0-9.0-1.3","8ntn8ps5u2dkwvr","8ntn8ps5u2dkwvr-2024-01-29-01-48-50","null","","","images/list_2/timeline_2/4_Robin_Williams.png","null",""
"","","","","","image-button-response","28","120074","0.0-9.0-2.3","8ntn8ps5u2dkwvr","8ntn8ps5u2dkwvr-2024-01-29-01-48-50","null","","","[]","null",""
"","","","","","image-button-response","29","125026","0.0-9.0-0.4","8ntn8ps5u2dkwvr","8ntn8ps5u2dkwvr-2024-01-29-01-48-50","null","","","images/list_2/timeline_2/9_Jessica_Alba.png","null",""
"","","","","","image-button-response","30","126865","0.0-9.0-1.4","8ntn8ps5u2dkwvr","8ntn8ps5u2dkwvr-2024-01-29-01-48-50","1833","","","images/list_2/timeline_2/9_Jessica_Alba.png","1",""
"","","","","","image-button-response","31","128684","0.0-9.0-2.4","8ntn8ps5u2dkwvr","8ntn8ps5u2dkwvr-2024-01-29-01-48-50","null","","","[]","null",""
"","","","","","image-button-response","32","133202","0.0-9.0-0.5","8ntn8ps5u2dkwvr","8ntn8ps5u2dkwvr-2024-01-29-01-48-50","null","","","images/list_2/timeline_2/11_Emma_Robert.png","null",""
"","","","","","image-button-response","33","135908","0.0-9.0-1.5","8ntn8ps5u2dkwvr","8ntn8ps5u2dkwvr-2024-01-29-01-48-50","null","","","images/list_2/timeline_2/11_Emma_Robert.png","null",""
"","","","","","image-button-response","34","137722","0.0-9.0-2.5","8ntn8ps5u2dkwvr","8ntn8ps5u2dkwvr-2024-01-29-01-48-50","null","","","[]","null",""
"","","","","","image-button-response","35","142226","0.0-9.0-0.6","8ntn8ps5u2dkwvr","8ntn8ps5u2dkwvr-2024-01-29-01-48-50","null","","","images/list_2/timeline_2/1_Muhammad_Ali.png","null",""
"","","","","","image-button-response","36","143450","0.0-9.0-1.6","8ntn8ps5u2dkwvr","8ntn8ps5u2dkwvr-2024-01-29-01-48-50","1222","","","images/list_2/timeline_2/1_Muhammad_Ali.png","1",""
"","","","","","image-button-response","37","145255","0.0-9.0-2.6","8ntn8ps5u2dkwvr","8ntn8ps5u2dkwvr-2024-01-29-01-48-50","null","","","[]","null",""
"","","","","","image-button-response","38","149762","0.0-9.0-0.7","8ntn8ps5u2dkwvr","8ntn8ps5u2dkwvr-2024-01-29-01-48-50","null","","","images/list_2/timeline_2/10_Robert_Pattinson.png","null",""
"","","","","","image-button-response","39","150850","0.0-9.0-1.7","8ntn8ps5u2dkwvr","8ntn8ps5u2dkwvr-2024-01-29-01-48-50","1085","","","images/list_2/timeline_2/10_Robert_Pattinson.png","1",""
"","","","","","image-button-response","40","152664","0.0-9.0-2.7","8ntn8ps5u2dkwvr","8ntn8ps5u2dkwvr-2024-01-29-01-48-50","null","","","[]","null",""
"","","","","","image-button-response","41","157174","0.0-9.0-0.8","8ntn8ps5u2dkwvr","8ntn8ps5u2dkwvr-2024-01-29-01-48-50","null","","","images/list_2/timeline_2/7_Amy_Poehler.png","null",""
"","","","","","image-button-response","42","158865","0.0-9.0-1.8","8ntn8ps5u2dkwvr","8ntn8ps5u2dkwvr-2024-01-29-01-48-50","1688","","","images/list_2/timeline_2/7_Amy_Poehler.png","1",""
"","","","","","image-button-response","43","160667","0.0-9.0-2.8","8ntn8ps5u2dkwvr","8ntn8ps5u2dkwvr-2024-01-29-01-48-50","null","","","[]","null",""
"","","","","","image-button-response","44","165173","0.0-9.0-0.9","8ntn8ps5u2dkwvr","8ntn8ps5u2dkwvr-2024-01-29-01-48-50","null","","","images/list_2/timeline_2/5_Eddie_Murphy.png","null",""
"","","","","","image-button-response","45","166722","0.0-9.0-1.9","8ntn8ps5u2dkwvr","8ntn8ps5u2dkwvr-2024-01-29-01-48-50","1543","","","images/list_2/timeline_2/5_Eddie_Murphy.png","1",""
"","","","","","image-button-response","46","168538","0.0-9.0-2.9","8ntn8ps5u2dkwvr","8ntn8ps5u2dkwvr-2024-01-29-01-48-50","null","","","[]","null",""
"","","","","","image-button-response","47","173063","0.0-9.0-0.10","8ntn8ps5u2dkwvr","8ntn8ps5u2dkwvr-2024-01-29-01-48-50","null","","","images/list_2/timeline_2/3_Dolly_Parton.png","null",""
"","","","","","image-button-response","48","174189","0.0-9.0-1.10","8ntn8ps5u2dkwvr","8ntn8ps5u2dkwvr-2024-01-29-01-48-50","1123","","","images/list_2/timeline_2/3_Dolly_Parton.png","1",""
"","","","","","image-button-response","49","175999","0.0-9.0-2.10","8ntn8ps5u2dkwvr","8ntn8ps5u2dkwvr-2024-01-29-01-48-50","null","","","[]","null",""
"","","","","","image-button-response","50","180507","0.0-9.0-0.11","8ntn8ps5u2dkwvr","8ntn8ps5u2dkwvr-2024-01-29-01-48-50","null","","","images/list_2/timeline_2/2_Paul_Simon.png","null",""
"","","","","","image-button-response","51","181406","0.0-9.0-1.11","8ntn8ps5u2dkwvr","8ntn8ps5u2dkwvr-2024-01-29-01-48-50","896","","","images/list_2/timeline_2/2_Paul_Simon.png","1",""
"","","","","","image-button-response","52","183208","0.0-9.0-2.11","8ntn8ps5u2dkwvr","8ntn8ps5u2dkwvr-2024-01-29-01-48-50","null","","","[]","null",""
"","","","","","html-audio-response","53","186782","0.0-10.0","8ntn8ps5u2dkwvr","8ntn8ps5u2dkwvr-2024-01-29-01-48-50","2162","","","<span style=""color: red; font-size: 24px""> NOW RECORDING</span>
        <p>Please say out loud the names of the celebrities you saw. The names can be said in any order.</p>","GkXfo59ChoEBQveBAULygQRC84EIQoKEd2VibUKHgQRChYECGFOAZwH/////////FUmpZpkq17GDD0JATYCGQ2hyb21lV0GGQ2hyb21lFlSua7+uvdeBAXPFh1fBwAOH6nuDgQKGhkFfT1BVU2Oik09wdXNIZWFkAQEAAIC7AAAAAADhjbWERzuAAJ+BAWJkgSAfQ7Z1Af/////////ngQCjRBaBAACA+4P8Mv8Jf5IOebwY4Ckps174RwKeUwXL+wJpSMvxDuYTvDjbpRj6m6ibbLnE9ghrXGpFyxZt70oIKK+qqFm2ynzjow5WAuiRRDC53+OOuN6+p50J18CcxtwzZG9/SqwUrrnnKMI+l9jfo/ABFJmkV879Qf9S+n46d/EPINU/gH+o/1iCFLPZuBMRtEBRGhcOCU07Gx1R3bPELKd1XXZedf2/aTnnhAsfwZmYx2kUDtO+nr6eFXvbvdShdLPOT37kUgQL1sNQXJpAN8OFRD1wAAAAAAAAAAAABaHSiO2DDR3HuVlapDzb22H9ayKKATcO0hd1cqh1dNubpBSO5xjwnT02VMzTaxfGcgEOYoIGJwa3mnNy7OPmMOhMW0zOkZQ/tC6VLqv0kAN5g/BBJaBLTxmnE58aJphijcp87EbJrRYk3FULoKyV15aaQfYcgsMu3jRLc+BJY1EFwEiZZTQAlEqKhF6vS032AkNEP4xJoKDsCp5fK5x7rXa0o5yma1DNAbZOndLZ9V2eHQ+8VAiaY7+3GY2Xn5iWp+cwGhJjj0NhEZ930xm6NkXZzyYUC/WwFzXK7tSYxlkKyy8FcTHCJ5g83aziY0P2/OpRuQr2ZA2A6I4XFNvUGKgHZjMC5UwqMyPLwcjPP3gpYtFRzykM1ZQS25+iql+jebxB5VIA4m3lMLmdqbU12GudBCjRZdbVcnC9FEsDSacX9CIM97gCAK0KFTM+JDQoGKj+mO7cafB5rrm+aWV/U/OLyCZyfwHdhMVMXcmLZNPhUQS1lBanV6OTEULeTTt4Jm1Qmjte+IlvNLVNlKQ/11DmwtYXOB7Ieq2wtlMfv+DhORZ63HGdye7gQDa5mkg/SCsnJ9dlN+QQjLaw8Vo1G9lgI/sEczMuJIpUBv093psnom7/dNKFBTacVBxfMW60bE9FKleJe+HkaZ2jVQmGYq4JTxQ4hcB6KfZwM11+o7XacGOJWqT7Ku5rBFF89UAYzQtTDnlQbJhk7NI3KsIIj8Dia1Ess16zmTUStBOw7rj2YtuTTFQfrlIxWSxLT8ig6Zzxf3mLJpJIUzf1r1d9+pU5g9Ty/CvsOCYQRuqXKqcrTdTRTriquyCfU3ms+W06x1MKdLNzVRtFrXINGUexPN4RuoItMA/dwZckuJBsN1dDvxCNUdtdqwnEfi/uU20N8IDmMNfJugN48LbZtun4YEE7up50MlP68B4EFf+Hvp0IbprHA45yyftKc6rW3YAKa329MWi6gSfUGUZ+E8Q4a69Q5boMQAzpHRU3jQ+n5IMYcTjLqMAQW+FCXG/srm7TRLbiBtbd0YS1Xzn+ixiUwAp6/UYS/SPPVgRBTqOGVgiKjDOLA38oCCMbzNLRq3+DPt6pUleDpCLH1qNDgoEAPID7g/wL/wpQFWIeTHuKQ2p6UFZFBaU1PnpPLY5vK6ktc3M6bwXbsXdk/VCYPp7vOHsLYodsfZfmUZjQTnfX+iEKahBsezH/PgH6VuVaV01E8zUY+KKizpBG12BGluJ9Cv57RMVa4uFaPUhH3GuIsEu8KRglW0AvqrFKhUY28BvsYW2nunu/6wyk8pSuTTfA7JNNKWCQ0ExcD9o/4A6Fu7Z0mExO51Yi5+warHb0xDTz74gLCRsGPJfwRLmThIV5iwOLIKMdbpwgzgVuG472+piBhBTSmkA3uxcfY2iplLOVI4g+aY6B0WKHOmqmtcHCWIa1+psPgkKfYLmLOFX6DXEwlrXzd5dXiAgzYCrXhi9BRM9awkDpPSiQdfC3ggDtkr57clG+o/Z0+ZeIQNDsTFBsikkFKS+NM/Fd5eZpmxOAt6j4I/eZIwbW+fhq1SXBBTewLObqk9tOFlXi5rvbq+wrhSbmlSUYtJ3FPf2ekuSBtk3ebSsiBwypSmsMVxJLBYPxItuM7yF+XfDcznGlOqNt9+bvayLbut1Mk8PaxcsD+sKq/pWNUftyhdDsaYhtfDFEbpe4yEhj5GfX8M1Zzl7ICvXyw+Pi4LUG62Wu2qIyLBfQxYRPZBAbo2sGRZwElKUauq6Lc0CVAdH50PS2PuCDuLE7uLZ6w7USuaBTYgL2uczJyxeB5cqBE+p/HtKKgGru6bdfdMUr/Xj1XoL3KFhH2QETJSJwtEcd3cQommb2zX4lhUVXLw60y+ae8Xd4xEgkYHpu9oFiyoj3b5ISNdWkdbzb+BvGpdhtA9AX+UE6Jyei9Wm30uALxmILt10Bh+hB34W0M12fFIEfWPoiqObgQWv2pSmY9A3skYxpP5oVFbyMWRZ+yH2e3/7KHfyI4cxHdYgmjitTG9O4BmlDTCJ5dfk/mttzKVj+9mrzqcQiVtoJY4QcVYcJzVrIySoxzjEk5X9jTVzphiKpFPgl5m50dTtf3T9AoX1kAgX/QaCylaRpq1+sTJ4GdrpwaLjIkyaGXm4kBqi+8rGb0dAvJcFlt37a7msprk8IvAEJxXuHzBKt7rykvPT54s9brz1rzMQPK3OH0i6bxtUHuNuwQ3ve4SIj9ygw880AvExAGZJ2QCpk/i3mcT2VRzrNWYxMuqjTNqxm6KtJIEJB7IIfk31zhXTla/vIhnPm/Q9OGKSjQ8aBAHiA+4P8EPwRx3p9XRLqhbd8dW/MH6avV4wjvIpsIS4dYlqpOnnsa6OuuUALWNXeZmLa7ra8R0F1/maRr6tAGLTiw6mQtqxRLaq1rOuj0R/seAIdYfPcoJ+CYo2jUp0yicKcWkiUmTKJhGPC4j22lYuLnymJbqJTxV8RyBou6pPzYZIIJMK+fowRnEZnmV+b4gLLXb5Era+hVNkS+niyCDvB0Bt7Yh1bMeShtkOYLJ/0L/IqmknzE3TTG+Eo4uNTR8c0KUKbet7OT2JY3E64n0RCap1HEMxMUu5AXOBAlpR/Z27pcl4iSiTXEnHhx8oCgsMDHf4x9P6hF21texTqgxJU6MDFt4A45bwNKAgV9oZnWAoFEgHOxB4Fv/nZmcRp8xPMo6Nkbe3tCH1l7MbsBIuRV7K/VLijTQWHqDKRjYkgG3a8tVrcvv/rCZELR46OuGXHo4DBd39wOsKz/0veZBkzpMnxeOSUoBOuDDrw8BXkLnpYED0Vfj937Z0HA2BBYrsXK4NU4I6gXkB26G7PRVGtYO2NoQkEDzT8xwrkVx0V3vRB3Qa6bcvFyvVIo6V5fr+rtEh/6ZChd+vnukGSGi6/e7PkHI8Rr4sj//vCaug9JwHktDp8VVyodaM3ws+MC9ZZ3ETEK9JQp8il/H0Z7DdhCzQUuEGeDbiUzTQhXfjaImNpXc47n4f0h0gX60cysjmOR0U8ION8vFKaBLphFVw7LrZpfw9enHD6SF9+YDlEMA4DEmJHSwAVx3QjWitE4brK7FZfhmftbZ5Z2Vm4MXYNtfQS2pgJLx/KSgkZhOaj7775CddeeVfejyEk1fmPmwwYyI+MJ6vHn/2Y2pekUDv/a3p1WvZGyP9hFgzbj7pvlw43WZTdXbanvM65CQH9uCKGwITMmrfk94n31XawU+ZZkYNRQapex3Pz5Q1h5PO1GScCi34Pb7QZEQfefU1V5Ldnj+HEtTYF07Kq08vlbl6rx4OnNZTi5KTBcY+jtlTgSgSPCJMtgXs+wpng5t+/88aGFGooC3UPSvSBsC2YUyl5vlzdHTv4l8izbmrEOaN/wToEExbHfBTJqri7y+0j1YrGXg8hDz/Hwa2bUlDM9qCIcJ4A5d9fdKZqJpPplBltMXGtB/DHucVsAZcyGBF9Ug+Aq0icaUwWAznoL/lEpoFP3pGUMrQ8OCcrQgCdX2Xzo1mTz1yAAUwzy+5kFrIIhvAR4/vzeWCDfxxkAY0LehwM8cX/X/2i7vyRbFt8yrb8W6MPu1+Oxk2lLqySnibBsl/qz5SjQ8aBALSA+wNP2OhQhs3rLATRD+4Y6kaEaab9Dee7+pC89Sj3wNnVPwtRzsI5Msgr2mLDXurAiABX+5FnC1V4XV8PqW00RTyqlW6QYA5/Gw00QR9+hinmeE9R6/wbPYr0Sy2JfBSV6XCT2IIcAxOreRJr4jN3cof9Tp/UEWzqx3iRdN7auHfAETJ2gB1kj2Pm2grHwI1YfIth+GwQkRmRN2iEvrH+JWPkBWn/56v9vHr9WDQ38KEyrmitxnhgLvpNVdOEsbwoQ22U+2aifXWDqSyrKmI8/H8Tj3ytDzN/s+JYU5rFJ4NbbolOq8QFiJ8vTNl89EC5lKRVFtbdcKoJKoZbkcB9T3+2CN2UlntaHYpIL77+z+SBo1+RhUp9Dwggr/QW7ZtDn8Hxme/YF1evaI5ZUlqL7mvmKOdgo0w8hL5jHdbjkmSi1k+wRlEtx6e7mjIyw6zkIsaHX1XGKvi+TfiPtohoXKuwIsNfwAqh9ETXM33UL6luPrYEjZDRI9u8V3kpZ3g8SVAtbC6ZOwdZw7EBoCwGsDafxudAhuiiR599sWi4FDW6pTKYsVUdcX2ywDBLBnUpSzyezGWnFg9FP6CNK9YZ8vVTpb0AeKme0VyXjNrM2D1SuTcoTBYRZMTSLzViGvX8dKKXkIb9vev3lCJnH6YXgnwTr66/aoEjf7f419dFF5d8flK7Sl2RxYiSeb60SylI+O5hkxe5hTtGEi++s4dvNnfDktYfewqyjM5XVwEwVoSxJYovlKsi2JcIJ708yi3OOzxT3hCVdalx4BjXPo+6Nv7cjXRosQMsER6s9gdngZb2ACazhkqitZUTaDQQJsVMLNkEPnZCcc4qtnRna94MsVIUUB0IZ1iReK91h9qOrc8ZlUIU+DNSe5+L19VTI45/DG6KZemh6dlXxVgj3RyIotpF7/9odMu82NSmDX/DpSHNxptm23qbtqh78zrXz5qhVe/XsgR+fA7+08FNnp4jou848XCw/nFxV0XHhpyx+aUK76D2B5xYA4lZbGMfO5hENBb9Vs3S0ftRKnFiaEws82CB5LAVgPGWyHUE/ylnUEmX+cnou5Bb5TCTaftN4Y+ZSMMYvA1ubbJknl1ge2Zk7o70gUZp6pOy4OEfEiShF5gLIBUpLGgHUorvYR/cIQA5hgpaej/1VefTSHYQWSogHNyk10m3uJR/hWKhGd2OPXT5gJPNVtkXRv20wZmVfpKc4XxzjXKuxWMvDnHtyhY3iXtUh1N/mllUJIKxIWJx2N7YE0bwKXPqLNBQJivomthGiWijQ8aBAPCA+wNbJUGY3iJiFdkjZz975lr8b1P5dYmtOi2w8xyLOy+2d/drDe6y48oEMnZOe126U5HbhCSQRZXX2LZHBfIUkworS7tSLywOlrZrAzi0gG03fXRt7rWMMMUMEte/a2l0NKIvdTkDw1/jc2KcE4iUca+9FTWX2zs9gmdZ0HIccr+rZGi1yEhLl4USDtkyBM+AGkrVagZN1E4jZR0NkuDzyKiYSkALqrAUVkMtxbYYj8kTIUReEwmp/SBj5G4hQssI4EVoEwM68ca0oFQzXUbdFrJDnBAtdmNMevDjvihoxpLzx3ZWzuh7673kkn4brpzlbah8Fe8Zu2eSU385BeZ+4sffaOFfVWbTWtN/zKUX+x29tFaR7rstP2fGbeXhRwjctR+LbB2tv7+Dxe3ijnjSv7/KHssIqSxsLLbv14WFy/YfllAGhJ3xTcyxTnxzcvN2OLy+KpWlYCrxI/5i1PU03xiQLbDUFG4Gg0rKkC6PVWuAqt0P48kQ0IKsvgGukgLsvVAxDz4FAW63ZBiBLay6mrPgc4sUFvgs10SEoiHPPcAmvodzuGfEFUKe1FnJQ4n0ypKXGazTHi6jjnRraL0F61IAhdemoqr2CRW3MT48DazBHhazTABOjnPmVrmmpv0PA5EG8Gq4n5Th6WGdIIar7xeSdesA2iaVKDa4vVrUo9Pyxf/7XPM0yPoMOFgY9cDEyGAaHc/X8jsOLOT6fN3uNI8/mLX4ZuMGNbCANJeSd2TzGD8J8SQpWq8A8Kg7U9oI8OwxIeYAoPcPIHmiWzEJUJNIsPBcUHlHTk+ZzZmi1+0t7FnJmb23iinXB6UPYOKjpeA6/rr0LKzJGFZBZA1E2PduWWQq3043ktwtbT58P2GIwvrKDkBY6r/OnBIVbapYJtQ62uxpjoc2n0LIGJv8n3+G+eyxuHYMt5GmEVJVZGrHlSl4YotMhOsF83u5k6eMC6M2zkoIgu5w9dabPjJ0Sc0pOlziuD050UZBPs3wq9lvU2GVpyC0RiXzjAvMzqV6oIJpDGnOsHKfJncOBWMI4IsVjiBT5PYRqSWEObWQ79ArL+1+MQWWI1Tx+LM/F210wR8SUMHtTax5s86TKvlaQfSAckwOji9J6e58X4aqxGhAcVx/qnjoc9PdjhtO+deJ+4wVJtuRC/qUbDNk1FJYvLfn8Uxu8eVgOhnHKuQVdS76b5hPlBTeZH33k+vvWHqu8c/PRiHm6FneMWXpP2NxtNbxPXJ8w5MgZ4CpjXDCJHr+Wjjc4uJISwWJHO8/2fS0lqejQ8aBASyA+wNPsE3dpK1xoRSbglt/6DGO6bwzWSTXNxJTXpKDHsjCYJTf8uk7I0vCD4S9DFxN9Fp/MG6tYuirXl8vlkX5B2+qerxhWvZbzDuUANL7Vcho17/MN1YZZuT8jPzIlHYJw46lVDQlSygafYJi4AsgFf8xZku1sjuh9EXfALrAr5/cxILtjJmjcIwyVm1s0wEjzQsXY0zOLDyuez9tET/bea9mRDuFebQxmSdB3dXLCEFF9XA4QUQJ3AuSDQNI775i0ZJOov6AGtgLY+PqyXUq0tHqBTkvEi8Pw402aUsW00uo8Z39DyeCq/9Z13qVkkMNno5xdIiKK7jghDsD/vXmgRz+uzqLhoH1oic1ZQ98JxdRSeDQDA24fUbKfdoz4bvvtkpYZsl72WXvhUS2UVG/s2bTtJVYDlNt9lMrJZxV1Iu47lBQfP2p7oEoTLdsFBo2G4OYE6IAlgSGeQqn/Glb5vI2ec6wGt2pGWnU/ogfkFAaMRK0VNrtEogJaI2XWPvsQXyK3w3MWjmnYczbGQPTwPGNgBTMkUKfGWmU0P/fXlY4IKAafUXF759hNqQQwkJhVzSaM6JF267Gm3ydH7QfOrDvfXBfDi1wZgM2dnyuTbVuYVPiL4H3BUo7JMx6lWptZS1FGxigbCh3tknp0ka8lB8G6+AYwlVK26H3bw+cFWwCuOOKoknjRnQuVUYtGtzk7UGydHwiNJBFh7bLiFeD22HD7cMY+wIK1Y8f5nGHHNpS4S7QXEYbhsyNQ7mNeBFGlFW7a2Zi4ul2QudM1Jstvwrsr1O6enjYC5vU7iscH9shejc+5LxVNrOQpcHzAoqED13NXN+3EfCM6SW8HDa1zPMLXs+ylnYRgbknupggYrfByKzM/hQ/0mlbYxFAuTpZ9vIYPgrsSdLj9jEPWw8drHKCKLTD/5zPXhQ6M2T3ClBluaEIddv5oOOUVL6sNwryBksoOb2p/z8xbOMVuUVxogG6WIsuwgjtVPNqwGTbJ0WHGmwNPsWto/DI5OVTzbc7XhtV8k4kVm3Wb3ovvqlNhkAc7eIyM7O2mVk6hMqJnumeZQJR1pqmbkpQx93l9PE6Qmu+daOI7o8/KZV8B+aiHY254FuskfdepYCW9ACCdNE77g2Vd8H9u5QiJXDyts3Hhb7JMgd0jcsFSwHgpUYhFqHvFzx7gT8a99jb7/DkCp1Hqm3poIFkaNXDMCX9ho5vHIfuNU7lbsSNfCm6+YVQ3GReeKjl1f77QjIMZ4eIV+cvSdA8xGuSVeJcMiZd1IjycB+jQ8aBAWiA+wNP2Mnv2Vr1IBgwNzSpMQya4S2GZ3APm0zoXdYylsC/vOe75u/DfY2X0+4dlkoQb0+Y87l/0Gz7txOLTPXAfzjbDHN/3tCZ+1lPRQgRZ8iL+asmjQyF9qoud4LRWcNwAod4ocrrq64dBX4RSSbDXz7qp10nvL2PcFTdqadre7QcjtNjrGwjMvNW3q3BMS+/5SYGuFGua4tvxu8XBfYs1y6kH0biLtBSlngu7FniH/5IQMYf7yhPat85dYpsblpc3Xd9RxG/S2GoJXIIHKDBRV9I80vs9pBV33sLqhjdfagUT2l1v/FxaBO/GiaMqnWXJfBBVLYHbsY0iFEcYWRW/lM41fWOUhEKqojFGu/CvQOVnhbnnCiXwOZ2JkAWzICay9oWEJkZ1TJnylgX8uoRt4nWIu0IsmKiWHhzIicAjW5wC1DPpX68E2cg7ZXnq8BrNLk0U+9fxO2Cqne4j1LGgiSzPmsPffeUJbhUZ67gVgJV69gEB9gd/+goYNHatErgWFqsDYtGHYnjG4SQNBM9zt6RQmxhZE1Kx2/AtZuEylzoqAZGduJg8GtwpAT/Ifs+Rvhb0K5aaNkHFq521Vn4kHFDhpwWSEJi7yXvGpq/ygGhKl/AW0m2/kDxqKqO94TVwGWLTcYIHm1uexQ5jPM8ZO4ax8MK2TApWZ+IOth3KAD1Balscb8L8wTinTKaqN4DeCpmQe8RdJjDeRwabRtzqXVhEgt+csSNFLQmGWlwVOxprq1LD32VXFQCmZWGDXtM3TVVbgvtzNnyTTfT0TZnsc6oalqnnkQ0bVblVheugSWNPsK3aPlDGFAl90Sfqi0vMtVzl2abwJYIsBr5k+991GlAUGyMhn6eU7S958uI1DxqJxON6si/HASNLsrdoSHijoFnz9S8zqQiwEt7VZAWOk1xGPLk0XRg3qZb9e4ilSHHk4ENzUEaw+j/x0zHFAK7FjAty/jLYLKdQM/eoz34OfbKMYUBoEAACD6XQlQbb+jM/DCmqX0hIJj/UWxqWbgqLoS6mYrlClM7tJCy3dqocZKw9urxP2+NeCUI3WRUb/XVYRfFGREbvpHzzqVhUjzCR1CmllSmjEDbzRDtwBcUGEOaN2/ZmWwvBo4NbAPfybpdO/S1Iqw5VCGXtpBhsbW1CLbprJlVRdxt8C1bt/aq3dAflCC5zbhxlIgOu5w/3CTfn06UOfxhVknI/D38O8kmsmhXHBeiPjlxO/X27F/7ZR743g/phYPmtE15DoJdto+Vaco6QbPurT1l0VTus62b6uOjQ8aBAaSA+wNQGQ0KRrXVQBWYovQ2XbWrl7y+Gyd4xVR+UC81vHzHVyhfzQjFxxwCKNWEB8cMmKjDVNxQDtK5wo7lixE47CCj/ajATI0RuEL9jdM4VhcmO+2meXWawl2gzo52ZVVnhnbyoGZy5gzKIeP9hE/tY6UXgB8ri/d5/S0nlpPAduq7MFcMtOj0FMLRurTl/FLk7YlZvzZHYyOq51SGa60EN5Hfi1mgHi5RfKLGRFC0bE0/C/QYW8Y9jNSrKWmTlrT+7UZy4E/oM6ymW0/g2/TkdZvspwqHSlWJunyjPiBIJ9WcoAfEtTiTjQ4df6ZtT02cEToc+3i8bGbT7UtRWTy9Vu2TwAQR/FDHg4UctMQBExfnQCXxcMfoTaKUn9XxrfCusuXLzHyPSKNGGpLN4qE7fsIlwsus1bo8ZJc5Uzsc51klL0FCrCdnQ7G53SRrH3CstkUmVKb3iMhIX+wkVoiGpjH76mq3DiJVIGfpZlOleDU0NC3kHmT0/wBknfGAXfzjwXdzpH6azZnMYlvTzvijEAGIc06zwD4xe8Sk/anvCIjS20VKqWj2wgILNyChaW4xMzVtUnpiEb71aOWjBrvcXEmuXlRGW5BfcmzQkkrgPdBwF6Z/b6kqdEdIv3OM43rwKBltsaOrzdOXXyuBjtANXA8mY7sFxuttxiKrK2lA7KFrMT6WRNfaCapxMVXraxk9kdyEeKgrzKKry6a2XgMaG8O7r5EwspXznWnm1Z2pSQaPvuzoqYYNONSfMv/T0G6eR8fzDvMW0ds5Ro6OY9YqGkOyPXlwOeBovnXizxh0tZEfw359dI/9XTXQOhZBsU3Up+Ssr8Vu8dQuLD2xeF0JPS2dUFpXf07vBbW+zgiXYcqi8JrsiInC48uGhKYoWyP7HoS1AJAWR1QkMJLBMX2IPVyAtxStOFhjm5ZkpWfGPbwgZKhYkFD5WvBf1zxxa+ZiMXjpM3kUZ4+cDtARBwuYOz5fMjKdQYKTuZ4rinx72tL04Fa6jE6uQ/N/djj0+bMH5ynXJH5UiJ5CuQ7wCCw/pN1mu0EANNqq+fRsfniXf7un8r2l2yd6Fp71TAmgywIeI3t98w3K0hzBHt9NKZ6bUodYchbUSvIWw+RaJEU14oIfmRSwNUc6hcsUwYo7Me0bUvR2ZH6Ohywxe5u6VZeozlyMhArfuvrFlxOq9ud1yTh/Is1LdCPxAPA68+yOaxys/4GAD5dT498k66eGx8s1dTDrbXHUk5U9dhq4yNciDjcUPhnxPDJJJhkwGznj6v5Sj2CjQ8aBAeCA+wNap7R1CJqQSEIlG8Yd8KMdYsJeGDORjCIHxLyQl2eJMyfEXgWk3CdG2uasC92EdkWzYKSw7E5f7Tvc2TufOy6wVbv/UV8RVWwk63ygjVEyFQtzp/1NdKVctp2x/L/ORDL6FBVb6f1iAgVYMgKmlm49sswSU2kI+BdSCnJH1rYR1rGTETySCatI/ngHoDoeaPWzV+APrb+066WCObIcyK+clEfx7dCyBG/lvZe7EvZtp203jexVCTMGCfizFVVWFyzdlGFTCuH538c6hO9xuJgImi/lZdZd/UJXrkFSo4tNAATPVmK/PnBIE4B0Y7eumSX7L4BYB6wIc5oqFHg+GGJ8Jx/067qwxtzAP6FezFbyGbm/KWA3aYVpSY4jzGtDGF1+sqvUAHkoxkAwFfVHMdJP7Ya6rYwC4plBw3BBik4gXlCuldf+78woyus4jixv1picRCHVPttq287kDUFU5NO1V55sDbGpH33M5x0scS7LRMVHCUbRm0ZqdoqbSujVojRKn7KRakV4NUpWjQgl6pLELhmuZUNRwlBIQiTSfin0UUxYUMq2l0DAbCo1/iIFL8xrhOJON76w7PopyTTXwXW8OIuU59CjG8v+6jaEQeRiP4T1M5YD7r47KutCQIuKO2xkX7gXDQFUjm1ZBUDGkUFT5lS5N2+vjQpp16R+VOs2vY03kHmYAnbcKkr+5/ShlznzNve3pQ0ipmpiY8HxDnKg56UnyjwfoipDx/9ezd1B9Np358gHfU2tv3GNeRcgski8j2rFoXVfjoAWIxj7lrfj+R+YfVTJhvnA/0f/deQ5fRWY0BPIP1jloVP6RFoA38vuw4acB5ZbJ/4PSU8XJQ3SUIh1JTjOmmb/VAHcpnQfvEmCbtYIy6Mbgz2mtwVCj7fWVaxwVG+ykWw1d+m0YmBvPs5qTm47h9wY7MeBpfN5QdPMGFm3JZLEcGw++tQtFLSTg/TFa2Vs85uEJRtM7LUYh/mSqD8UznA5yKtRjcig5tbefKTyKFRpfOqaL2BtTIvyZARPk19sSbmuNx+X0nJH3vz1icWfVvKpyTdp6K1htLzrH69LuPJWXuSb7Ivui70oEMrK7VP8ykDhKFmrI+wtTjpk8rqNjr3HPr2ypUI493/XadsOhfSX90T/wgmYMBpVLqDCdg9K6pgt7LPXjse2o8r9Zyh0jxW9H39BiUvA5cy63kfy2O89VGoxjjUHBOv8lHwlESxpS6I5K74JTpbQqkAHnf6O8bK5I4VwGweFGOd5CIb8AbsWDo6AVwjrCdujQ8aBAhyA+wNPrfHjwfsLgxyhtuDicWRv5kDs7sG4Z2UblP5Oi60kzDx84AtURglAQa6ty1l9O396PdYsDYbRFd7TahvdKlBFticte8bCvlm0j2jybLWHfalW3K/O6evV9V0hqW6ngcKL0FveBxSpUc4jrgJpfRIYd1uKtUjUHUIY+Tni2DgRpG6moYKQKO8KZvQv8LGECcV0O61IhroEDHgN1zVRrvN990XwsbU+A5j/22GIAZAKsKfhwgSaJddXFuWdo4DyJxJu5k3xbG1KVsNffs4OGxXx7TTC5hYFMgg6FI3znnkVD7H38UEOp7IJ94Wyhkizn1VEe19aXm/5V59ffxU0E6UlJfYTIvuPQ/4hyrFL5znzF8ZD6ewwOt/hkqTN/uXJJcGylQxigTqMOGTQJ5ffamWoF++n4yG4eKhmAzEOogYkAlrJrqCzmBN7aJKLJIFCns8y9BZOyAK46zN49m1Z5MKVP8ydyYyZ0beWl5wdtu8pOxy8UmHWPitmPyzLs/jdjqL24WXfU0mvgr6gLWIRpi5dI9OllTQcyQbXgOrrE7FXuPdmUoZ6T0vTH63H74XAStdXcKuE2K1WAajlX9JSLOBc9KP8sdOJAT0gRqETLw9MvBkBuYxSSJ/yfrzLeaGYv0yHJ+sywlw61OY0L05grp+MULqIuD2hdZofhz1kYnsx7ENM9Wi7a4IOM+ilW2Kwh4sXlv2AxJR933nLbbDsb4Wx96HmCyagL0TKdS2sGGB1S1VfQXH3l0XK8YqUDQGFsrRqfhLD3Fnn5VvTTLPsFaVBaNRgcWayxfaluMk2WmlrYy1EHB7rvBnpFyzGg70n135Mwk1XH5wjG3VyXhrqsbwXUBue1FtzLmd2XhyRWQcRXDfu2Ycf2NP+076+U6yZI84xmNo3C9G1zom6bsX0TFD4C2FoL4bKgFNMkBcMhN3jQSlyp0K4sGlCudCWaSB8y7OSR/Ha1Sf/ohGbkUUEYoPq+g/gsqA+fCv3/wjJYVLVRpYdgxONJDQgK3gNGGRdlyQHYhMitRJU0Ht+tGjV0LKm+Up154D+KMk2ZYBpMTfm87bM+cgfrDj0SH+c2MJM88rNxkkSLpOr7R+B1vMp0fIpCOTregxCvX1QXgZUx+B6NXA3aqRSELD2QxHG8YeaYXJtSia5YwTada6JrJ79qG0wDUlB+zPIrQH+D+8Oqf8sRYs3V+w1eqrd7zxDKY6V82m2+8zm/AJrFaJJZcngiB7dTHNiYdRYv/ahtsG2V0pYNYNxGoDK1Iw2R2YTkGtH6yOjQ8aBAliA+wPHcUeDxVuQ7DvXwV4WdWlHgqwFej7JjtjqAVDJs3Y0jjHEZ2l/eJg1uc7MuqrKx9MPldhnqsrJ+GkluXJMili2DSAsWCEJKBP9l5GNPBCOiZMoxSxEtuUf+ujesJQvU8Djrt+97qlDip8QHPtxg0pBENl8Y+VOMFTcejgdbExAiUcmzvzTttY/77K+QMRmvUZRo7l1GlMwo6rzoBxsgxCQiPsTxaZebLslw+LfJjRbeoaTpr63e+nemzWIM/JMhLZCC+bHL75fdKjUQpiIO5Jxpmta1Un8YHCiUWO/4xOExjHtl3S706gpmw7Rr4pt9V/YBdFZ45o5TBMI9iH10qPvk5jWv/1Lnbenl0aSUJxpSAKRpjkFR/PQj7tzI3iiQs3djfFGy2e0FoE/6vEay9kELs/XB+NUoXt06M3MUuzdMVBaV96GudRw/IKmJKZp5ZP2eRG4hv0gTcD8r4Zs6Xaxz9RE+9Z/CH846vBVHqFbkwgcbLclzb5uWRKyL8MXmF0ypBesZAZAf5iKdnc1B4pq8viokIX5Kc8g5wPuWJMq1IPEr2l14QhlYrRZvZcSRODNY1QW4JOLhnjaqmhOolsHLsxdqUgrmP+vapATLzzGjgehRUBUszXPv09DgGWpUg+3F/cqwP/koXgbwmunWpoBoJTqVvRKE08GD9q7ro0rFFscs2Vt/t5v4aCYpo/6iMWF8WjKNNrhvdsjpX1FT+S6bp74C4L5vXZaQ8MWLqfy/bRQ28kJ2MZ2DJ/HdxzFV478LbKhhw6jXJ5hM7Gq1ceaxroC+URk1I0rnqFRqxA/x42NsPBnKzQwYQOrcbubAB0YRLXWkNGuJ99kML28VgzWT6Py4dZl7eVItS/Cn73CZ83jihp07Nhs8P3S6loXx2osY2dHRxjllua07AxJSP8daRXa91AbEsSqJYSog21NOOm1Svt/tLscchJiSPetxUb1SSQL2R25A2CkFwdBEYLM3solFFz565wAQDSfdcsN1S8na/ty/pdizQ+f79OzlVfN79AY7EnuT35seaBoTnMtvApqKP63JKwOxj9Y2+mJiz95NC+MFvtfCOpIFwV+vNjzJ1d8qcCtmSp8YDOeHT49cBwOV8oG39zr1MjPM4uMgtaf2BGGUnHN5RzBjCiGJBmXpeOJphsAxkga/FDFItCQ8l7wXMCy50B4FiDmXtVIHuFgQ4bTRBxWBRv86uIgoiTVhqRGNLZOxcqj7r3ABXp07F1sfdmosP/cP1yghmed5wP30AGfSKBpLfWS0AM8K1SjRGeBApSA+4P8P/8NdaOfpPmwlhTMbe3tuqiKXV5ByAHxTtov5J+jCK7zBcxKkJBDjO24FkDnmwf9KdDG/MuqdwzQl0vYnAk5jHqHE2yDH0IHOFlnHuKgQG9D04GSv5vAnNpu8kRDwxlcyyNV6veqV590Bt2/g7IHfPiq81L7QRDjutzNyQ/jpVgM9FhK6TE2Mu0kcB6OGKAdC++ZFD9eH+3rnaPioy1TdCzJqCfdjaSgYGxd2AqRX238KK80kEY3f1QCTrjdOO3uebCZzmpyZ0+O4GXtHo7a0HyzM6wSsdDskHIDHU0BYa7nsOO9NH219Xu/NAPILGSujEYJumROfTByZ/aj/7pHvCKTJ4yroYUpMKYKaTqTTdBp0Bjj7klYd8eyGyx3NIwLYNxcorgOuNBdTVFBYs/dQoDyA112nF64LcEvFYOytOFzPCgH258QHLfDLR5V0FDCWMBK6LzB6VvThnRmTKY8xIs/RaFe0+yVWDmSjyAN7hkgPtmoIVeTxwfOWE2YVDz/Os1DVNdwUjQVsxzWSG6Gjo0Oc6mskSzsEnICtByp0vr+X84CgBfaL2u1Yrod9/RR2/LGAE8FVvbDXIDfd5iNyTtJTv1u4CmHhA4+4xZ0RVc+m6zd/d94Xicpbg8TJKTd3SkG2IUvqK3cPYx6h5hiXiHQbScFF88Uwte0hOHp3bv8qwfp4kfY0E9rfC195vMZCsBfJzn3tnEo0PKmDbL7Qr5yB0CDAVkDdJJ8HRNesspuyfxZmIYVk5rzZ4SQWkZZokKjsvgd5sizBruzuxSqJwIOm2MEY4oIJo2zqaEUm4WM51s+iDLLzk6cwJz5gPVtCOOjQBKr+2MZLRIuWc1ETEZ/d/An45KBEbdxCHkHb8TB94ex/X0vSEWRu1ZJWx6H6ENUvt4SzSWa3+uZIY2b3gMdZXqmtKsRcOxLfwWY8q8aaEqV5JJlmtJmiZ2jIuvVR3AjPbjRB1KITX1yGXPLP7WAXxaMqW8O30p8UAp3/8hOq7Q9zhecTRhIXI1yyM9xWP4DJMNGvnUiVh6kqmtbY/0kUtfZq0qBmm773y7lwEZyzqBpLCg6tNt8L65cwYEoZKv9/poF8xKJg0wBQ8FhLZVkNJPMWNSaFWnO8hmlZliqx80qKEP2wfF2+QeoB+Sh3W7XaKYPWY87MWtmgRsDyX+4IaMzknk1L+bngOMdnJGprCQcYf8QtawEBTsyMqCrboQkFMsNlAgCgKpCiVXS7XP8ZRQfI6QO2rHTkqTtgDCjd5O3tSLf75W0w1p0ejIsMbeup1/efHDMTOzacVBWeQXb6IuJI4inzpPUYqmaBcuf+zzYBFeV31OJ/MXBKO09VFuPMFJxZnSWnj8TmeolH9ko+F4XEpSYPxTMHxDZCxw2a+y6CPkEVjIkRdYbc/u9dTtUiFBDLlSDGN4RXD075lrMtEu0/3XN3y4gfOfyB9CSwjKwdGOLgUnKkJ2JBhxMnSMNBk+Bf4ZJBZD33MTJQaNDm4EC0ID7g/0N/Q0ifIEZv43fEcSbvbycDtwFODx2aS9hXpY9yc5+Qpdn8m0BM6E0aL7ivMsmB19xtN9ap4DD/323EMz5fQh3AmzIqCbTnm99glpo89yxlpHDbFanJvmAQ9pFCM4ZRv1fNnC5pBtXVizE1dIlAYMKfTQoLEjpMvU7zcIbhqNbon0V+6ETPrwhRgfW31GdirpCB9AdhYwG2fdYklrgGHJ2O+DqPE94L58HDxcMSeqihYco4BnZDq2hOTav+gE84bCyrQ6qslR+Hk0CsKGS9nl1b7egL71MgBRm7ewAAEBk2Tvcqv75eLwg8L3SfvBdPJNJK0JhtP4WyiAhUXL1lpU6PreG4Pwz19Oa2vsMS7Q77Y6oKNlf+PNwYsJky+YDDDXVsRM0rXjU+xTo7eBGg/b8NOP+WlAWHIVKTTOXALhxIkPFGpWJ2d8dlufUSGX1CZ9EINJnKijdZgob1w1QO/yxvBf6ByFQ37hOOs0CrG3cW1d6z+4seZO/1WdCCN6L7h9QPJ+0D67NLEdWLie4pcsE//2hCYlOBedtWhQmxQIAhZtgEXt/yBfBCSBTbpzMeNbRDL0W3idPuhixuqqry+FEI07Z1JKmaubqrZcUIbK8rflsQuVdSccOjqLXfBbDtkC/usUMMx9jqRNHHWxUWC8amu83ITBAHL5vHyiDpr3SNasdVHlHjByEI398p57QHt7iSg7uKuFIN+lbg9LPpUVcLch9CB6/RDShNfgJmmYVJmUFcedia+jAnyExb2XI59ivQ/ryIwaw5x/IwAFLW7uSFXvJfuOgmi2hkCIRH3gxlxycuSgXUHS6w9Xq4K577DS/4Rk+0uZvhJRMjQhR02ZDr2WyBR5i08Dha9ikPUQobox0LztJs6GpJ9uiYwRu5NitNUIzRTpe42yiQ+nScEoG+0TWXN0wtzxlvEhNHtvq7ZfgP1TsSenMH754UEakGnO/YNUYzHO0a23UUo3qmmtP9R4hDZSvgclYSwwQqNm+10UIcQZQG2kIw/N3KJ3xykTXW8UWcc1XSmx/MwexltacjX/v3gdRNtKfsEZJaQLeURwxgfzoZuYnqfKKTpb4C+Y8py0MOoNi60YssYb96htX8BU4RSfPH/2GrVdCcSHMy+5HKo6HxXxbCtAooXy7eh+bd/YypwCzbM3DWooYE9DLrPLbGPXepHe5pGO/zImNX+/g+hK6f+K40bWnCoendbYtPf7uo0OWgQMMgPuD/g39DD93cf/TRTPRdv1CM8H+9CFxvv7a1FdA1VoPdsNe25YMdx6t6x3KhSbLbIDQFPAmGuogg4NJCESnNWXF4dejGwL0XRYs/vys6PJ27iI68LN69ScBoLctL1QcyhSUpwBn5F3H00LzwFe0zolT2+hy9jY/Tv+1XuAvA+k/+oQ36he6J6/dlY26Ln25zH1d0Xwc7xF81QwcT3R/kqdnVdCSAjBuezSSNc4s4OmvKh2vSUIWlyfBsQRYs0BJPswqqVXJ6RJ7fGlaGGpMjCFpXvGXo+s0o4vovdPSzi9WsVp9OxvmxedO8loDIoIJww3j3jRQYTTFqxxOwpSvr3f0uG3TPRfyxd63d+nr16z5GqZPTAK7o0Fzx2g7+Mko331SVUCOlPCiklTZh1T1+MrH0zIfvetRm1CF++DlncnyshzDRuHU3Al6iiDc42hdzdYM8RrhLShUGgvlzHI9tvyk0hQwVVY9JgDSXdezxkXVAYW4W3GPQhE6UlycXUzCExLQkuS7WZOJRHtu/diPXzUX2ZA5Rlzl1hx5tdGKSO8OHtIjC3sS33jLsBBZSmmBuLuPFhpv9GyDu4jjLRae7u4RPaYfGZwpJnbXuDNMc4kzlch5tsYx7gq2fP2NkDNTTI9Xz19wNepvg7b6jAip/Lsom0L3xPkX3o6vAnY8Was+F/5wbtaSvbREzcKvMrn4LyWOdL0IitiAuvXqx5lMBIM+nAWJ4cRB25mXbq9PgLJdeYx2zFdU7G8ZCfxHsh0Xn5sZ2FXOaQhakHHHOtVmrq2ayjRwz+1cs3vdjH5UgrGhH7dxu5Na3O7ggxUnY0PEYoTv3KX0/SXvxRe96bOU555jeIkDRVkDg+9WTzqUZ2EkDKCdtUvMjCOR+wLhZ/xvmDvWcnJ3EQz9J3MeNlg69xJyM1QqC7woUZl0Sgn4xrz3r7bWQTe/+0WgNd/iwgwyYgOsoWZcHw629B/LweDdPPt28R8mXMh+hTEQnLAxqnMVaTY1ydRzdAKIonjROgWr3AGi8t9w4GOegQ9W2WnLf41XFcM38gdPY9FRkmJ05AveXqeDVjzRUEJECS7DdA1FPL+8Wi71mnCkHrjfe9JlwM0YzDfNJyS3VcwtaZzSi0MTrPxPeL8bk0+7krA7mrIq/YXqkKqxH7Tz9gcSa4o5CHQ5T4rxAt6v5nAYI9aPvZjrdV16V7awbRFFQr7jPP6WWT4Ho0OQgQNIgPuD/Qz8CkAjNqRi/ms3+d85tabwTO3uiXaczKrrCUDZE1Kg9mC2R0d22x6nzvVYgEMBU+z1IdnKYP88GngQXcCDtz+DALwYdkF1zAvyJNOYdo2ozW0XJfX7DFsmpL14E4hH8Yb+CI+Zabt6K6RHywHLebsCthj5Y3dCN+mn316WfUzVFPpofDLTJ/msIHwCiqcbhQN+iM8ds+vSpg1uezzbe2GOUw+En4K/SR945zmSBXv1NO8PLxHGU6LmFXH+C1AF1dhMDf2f8QCWvdYaLVF42Y7Pl/cuwkKh6vII8Z6kztA0jqEmEhtTe0XIwHWOXW9Y2OAZFJmFHs0iEf9vaVBEmQiYO0rOvVREk78BHPqS/4+fnX5fyX2QZzNuE8dzdtdJHIiZW5MZpjMAyXr0TiUtf7A/h14iiyMfyA9Vva92j3VC+SGoUEEvg6JenYRlOyyFxL22ne9zcqPXwC5JLWAf/gM3QUTbAi0++STMbw4yQbhw6fcU8E857LVizK3+X8rUK5itKAtaqUcYQVj0aALXdRqsI9QECmcyv9q7UmCFO/odcUP4UAqwB2InRgh+puh4PiXQ3yiKbWNa+ZjvvDEfZxgeuA7zsygco6pkpjkArzH3BGrB7ESFLqV5sKs39DVrGTJsuGin1M8rz6DpVyiEXfLp19ZCdDVi/sp4t5S8CKRpG1CpGvtHvv5SUWiooI1b51bTzFSn98PMNLm5ql8mlB6ICfZ8FZbAB1eoBv9eVEzSzGJ2HXZWtQ3yU1HGedgb0YTwF4H5q9kpBiB4tEeq3J5fMahTUAVayh2/Uygxp7N4m8zUcuxXI9ShdD1oYCCLEBi4itil/sW2jEAheTefqG6LYQ/cIpZ0/sY6ae4ePzaBuZ97eoQalYLwMFzoG2CF8ApG+Gny+hvsHvR+4tDI15CQptklcrJFuHQclVWipu7eE8Bygy791BRlkadQqzr7t/YXotXJTJulwAYBylypUjYyCt2wXInYsNCOWWPfQt0A/lu8VBw5ajfjRylS1hHjMjhHMBH/OYYRheKIsE+EzBgSJ3M37bt6vCclStWLaafj5+Iyx+pQiTQYYtAGs1p9I3MA+9676GELiPvPfzXdNbnkJejdmUkNZHXy0TrQLJ9i+gM1NCKJgQMjh+iEJhxF02xd8BuQ+gX+A5EcEuavoKWs+Tr20xpY2alLlONQ0hB7wX5bU4hWDXmxo0PGgQOEgPsDWvc0Kr+segaJNC2EZKl/CP/Kt47nS/+a2t2iJaxlq89qf80KV6nizaW83Ictcy+dYzhbkPbvVtKv6a2pqhxQ46JFRkzSO+MPi2weEZgvK0MyH0qov7rithKwbaZ8MAxRMlMfeOrklc3VLDdCkyon/vdoxRXD6SJXi5fb7oWM32g+AVpShrw+ite1KkQxzrjqmAqG4Ua/PEaIK5TFRejBWH+IrcoBJttxfMmjglCWnuD1ywFxcmTqcn/48kWS/RD5U9JKoPzRFHEAo7Vj28SKaWIYpAaRp2kO8uNChHiVLv21McTaROWVuMoiLV6EfnShoc/mRUELTVydtRQb/J/EpVOxaJ6TVqCSt4u9+rNWH4fvp0BFD2nbpVtG81xQQY9IrTwSh17ASlRUyebjNIoUBVKorLlY6kSb8prtLZYmBMZayvEy8OwJSVOWoU8Af48d+Xt4jVGGXVb/TiKQMS15wxqsuhR9cU07SWEfDS4HEqp2H+9uk/n2PcoHEyLBQ/GayKvU/IkdaauOrZZYwpM76cw23Izwf3hwcphQtpZbeEyJcD/InRQzC7ibEF44UMCXEsqO4WDBYqNspZGWGs0b8JvK01V92V7Q057hbRSCoCftvXpgjatq65kDj61JHiVOUMxIxvHgaF06Rkmhhq654DRJsNgGpRvyZ1StXL5JyNJTgo4IqtHjYMGaZVHk03JushnPE/oR58C073pNUky3FI1DTm5GyBplWjfeTE7Myl2uLLBzqx8OtUve9dzoXDdD1dH+5Sl6X67Hubech0fbshj3t5mnuwZZfNx5qpptiikJJLNMkjMtVVgNSlrjRWkuIDlUVlC08916KrTymX0hV0CGZ33eLYWbKUvUdXja7rY8X3DInPR4iNxmBmjcT4vlBWom3IFpm1pBp6No7vKM2bxwPpjFX99k7AxvDuh41PqNayD70x53xHLNCk81M01E7Jbd32HTT2KeB9dABJ6yhHUsgQNNMiG2HfL38UM2AbTk8SKueKwDEG1t3nxmrAJzcWC5r87gFhkR61ATX9BOndvb+xsQQCXrAP+qBHr5DeKF3FVYMIDQ+CrtUwNwvvJHON1Z44xVl6Xl8rdtAqOb5iECMPDXzyZCy97Z3TXEckXMAMR8Yua7yVBw6YTKVpoaxlWSrFMC30A3a6692vU/+vuSCBFxdAx6u6Yz2lL8OSy20w/RS/gVpd7/Hn5aLhKqmVuVizTEkwJ6bMwmTsgasNs8rOYoL2XtjSn3XprcG40Y2D8GjNnXTY6znDImBjWYo0PGgQPAgPsDUHhcF4WmCRfJ2Kz1JwUU3PoxWrQoWfmdTjp8dOkJTUcSCzsNONOa6e+3dFi0UVDGjeQQDMOKrhXEiVFxqTE0t1HWbUYsTNX4COIepOhT+oU2CgxTktSQ8x35pUIIFyF2mjpa2IcMVYYM5XXN+FoyH6jGguiv71G/oP9Vmw02UR33rVjfj8OZ/d/SBZxJr7n+V0YA3WM9zN8CJyVPGDCeid44HHQ33j1yIGWkybAVZMmqiKCN2TqInjQ45miylvTvAh2KW7DQei2lJSJt3zwCEKobz8FWsmm1OfhHArOEhpRc53jpvbX7Y/Tqz3qsifzW49lsjVuNCGeeVomVnrzzfCmPyKRNAgkX/xFkLHNm+/P8VIYsJjQlIPsVYouJN24aFRrHp7i/P2SWeEgHWjSSPoaA7szJwNMMAz2p4KkI4oRP/9hHKrGBv/yiPNulJa12be1Fai+xIQvM08UFSdG6tbhKzIuEAIWu8EAdYbcij6mvQJtGBDk/haH6IMkvj08nXkZynTMqhBuAODuwWTDVX9YYxgpb4BXINNI/jtWue5qxeqk63bPMufggjtSJGkcIeAZFX3Y4EiddK4KTzmGnJHnAEJKt+BXVPNHiIUV8AJus4hBwbmzkSwHTjlizNwyi7KD2ov6cflCnEcp7Vr6TlhlsiMAq1ky7BXmdNDQZyrT8HwvpHXBcQ6/gNqIlvuRdNvd+ajLQLwvuv/7Y5a0VJJ748Hv5bz/M32V3zPTl5djy1f0ntoURMX61eIkrfEYwkJL4KmYete5A0Y4llCzvvw0v7VpLo7jIpDDFE10dNgOZdJb+xKY1BGf8tMLZsw8YmdDF7OZLGGBhbgzgY8nZu0CGVr6wQ2+nAAlJchEW93gORaIQghmE9wAHmLU3cvNTkIbiD8+Kx4QPC7jyQ3TILtHFhpC/fU/cPW56kAMyiYgORkbZhVGNjnt44SwiIgP8/r4k4yC7FNDt1xcS3X+rt/TnZ22z4JqErUhIFNRobYwF1SEv1ACxgBUjyYof0OH54v4VEWtUgAj7ubOOaH1IjdhJiaAMVHIaZFTK6k0FkUtmoMcRG5h9gFOIQ11wuPOGDnSw5cWBrpRsje9VDDPZLQ28r9Q4G7QcJ8tup4UabRvDwz2+9aFV2q8jE/kKD6mY5z4BpkcFIaV9zeoApH1OaSPbyWS7YRuGL/x2f6KtOkhVliLfEXCkrVxnbiuwCe0c75ZSnQmuhdBhQqa677sDGudcb5chj/cCW8rhVRSAfqFUuE4Aas+4U68N97FFYwfEo0PGgQP8gPsDUzHvTQPqOpGRcYGL2e8S6dnVxnfJnP6QfhLDn2v+OzhT4I1d8x9Wbr3lJ8OPMyAR/7q8xcwL8ciH6rXWTgpdlJ3iPFH7NoVL9lePPZ+JCjksd/BzTZ0fd8ygSZPVwRFrcisQhb/xa3Xd+Rhl4XQSsjoHT32iqfUpZ5hgpR6UTMbrh9tsiNXHL6VNVz95iHdQ6/1vv3stWYqsBrsMjeRPUYMqKUn4wUfAxIhJGeCwlDB/ygZPmcHs92zNPPwUYx5Hnd8WK6/aMc8P9Tz51gtFYXsW0IKP1IjN8D8aEwQ1L0Tk8T53vix+9ovhooO++3qonF9YJabGW/KP+TSVBicoHCK9/aeOl4aEhKeiFknNkekAZna5HVX2Axn+QGajQ+zysFtOIXqbGwU3V2LJal6VGy/myDIoBCaKustzQbARiMFP5ClxI7GoM3HSi32lPlMmZxbYsrq7T7JWOZodmCHt7gImk833z0jkIgg+v6LsW9rJxAn8Pgs4mZIG6WHHZ+LoPeyrEEaP+B7DS1nZn+Uiq1t4/OobWSF2jy3Csa4lu+iS+lyRKyVbj4i32tIHmbw7m54ov1yanrPAXXWODhmrIk5ib1zsqzeGnBMNNiZAoyxvrbpy+lkcr3PpqAsyLbMbRd6N2hlllyyoK3U0LRGSQE8uMwADjG/xTX2BKaeHDXH1eHe8lxkswfJblIJnfzdR8mVztctAhAu73VaVwbRKN85GHMwMIKlwud3fcssdw2YlqxcFfvoJxdmHFGf9cwiM2BRXZx0klfgM62DkHij4i0oPdO2P8W7+Ncpxz2fML7U+Vmu+FB7R8fp6zD2mbMonfjvcww9cvU7wHYl869aWkFr0QsED/szyVOQGbBkCmbNEONGbg+aOCYASWE01iY6P2Edatwe2YrpjjlEuyzx5TvC2/3j1w5rjFYjhcdEPudrFuo6Hxb9EdAZNMDHmNHmLMhLFrPhEhb3E2+dC+sbuo6wVXk5bCVBm8DQVlbCr0uTUsqOeJ6eQFAMbH0x5mdy5iN52+lIS8t8+VEPVB87IWjf2NbwNZG/zlwf/QGLheemwIKnxKXG2KvAmPGST7L3lVvhKrjcf03RtaHNDACTWYZCuIY7AStGbFl3i+q6Ykp7FNw/UAyLD5c234+4r/YQcxaHstgnkF6JXvELUaZPFQJXWBcD0vyasYaH94ZsNO08u0QC/27KBqwuErBqdIXJZAsae/fPsnDIwlcbyPzIZSQ4G68lxFaqNHr/YQ9qXSyoXsEVQ9YhdIWvcuQjRnNtMo0PGgQQ4gPsDWd2F/0vnpYMr7lINUWAsXTjiJV29G4v2hpeaT0UWGFLKV1eBIfXQFxC+EIME58OMdMwHthkzhiOFX7PUogLF1YpGD7065L55jhYGBHFrWnZvNyQLsOEjTFKf3AYi0f12dqhXtNtRp2EhLUb0YvbjeQkeYc4kQavIp1n1wiTjcV6bHIQcY0qT8+PGG7CVN+KzQvJEauCvUD+c1BdQpbHbHJWt9WFFUU1mTjD+Gsvk3UzG+342o68lvxLMKJ0eDMdbvnXFnqdQlZGn0pPjORe7NYAjf3z9Ktu0yZfgxQbDwvZ5KdDSoCndGn22OHMTKvlWKDvJcmhzo/lxGC32zL6P5yg4rWZBjIl4ggvEAb2iAzGwOGhfAnYux2ZtCvWJ9A7gJr+N8VYWr2u67Iw8LgAqqx3s6BYy+x8Wj44n8t9FsXZQieUHo9esniZy81vlcEKBFVxPrhONGtnT+kgN4AXrTtKRGpQ5B94vq4llPOhNxTCIzaojSIs6p3iBE55DAoVECP3Xfitqp1mMuVyxF5vxVw8uTc+rOP/Nc4iAp0VcKHqFbNeW62xhT4RXui0olOu3iOVaLywb81cuzrs2azfs5R2zoT/PnGH19RXk2AN5UovxZr7Z9MliTPZ9vEbfSmrh/yJR9dpyVbyc+Y061ZnJPrOmrJh10xmltzUriOrz+kz3LsYHaGlQhsh5ELQbhkwOCjnorDU/62zIaMim13us24pQUqJeOhEiUiwvKrzUwV8odtBv+WLzyINEwP+f4dIxmK8852nIBRB0YEHoKQceNXsTiOc+W1VPVOvJiDswX6pyhoX3b0m0QWDlU3xTid2RAO2CvGIEXiXEUmNsUqERHU/A7FtI1hLxPl9Z4x/maP99hxX9bLwpIkHS3tdV2CraIxRPJYoWU4YkxBgV80nSThtBZrnnE2cZvje8+TNqxTpjGp8ZtkM3/wbRH3o46ksQuKun3/+DP6Dvh6AyVhOyauVk3JSOTpHaagyS5WP85MLJ5m/F8zE2Rf8HtG2KUhHMgjHTzEVsLc+I3C73E2JIGVCfrOrIygONhDR6zr66SIvEyYa4u7EGClTWyu+1lMMARtG3PcGCeXHcXKxFL2JgaxVM0bDC/asBcK1+/8dnrTG6cFavggcmfSIpsR6DFD+RYX0fJ/6pcR/G+q/5jCkcpRSNdaDs/PrOvRMDVBy6Ye9EibBPYt4yd1l7Bf6C9CUikJT/7M+yhu7J5sIFw86WHWcOqOWYsrGAaVaxC7F+4r10IcPSmOfgyAgllvxMuKVKo0PGgQR0gPsDUB5DV31eAcOKCf9ycJdnlswHrmMCFAPd3t3rd/d9vuN2MlUt0QzRqVgYIkhXICOTes+3C/rvl8JPOB+0q2tx43iJGODKlpJJnalXSIT6r4sdyu5h5fHBiiGOFK3KdGYl1cne39XMymTuEUNJ5NS/0kvye53BSt6kJY+EYdld2iuHpA/7kfSsYonY+MlvBsf+clX1aJL4cLO7ekKkNezpjSHQs81lQJOVIDM4wDs5vqwZTl6MiEAvooF8MLWQvUGEIb4pQ4+ULjIiQ728JpGwW082p7NBUz92XqILdN5Z0H1BGJsv7qhzHD9u2UMA3B/7MJea5CUZuQfelg2wQdLTEVDUF6q9pQblTyXJm62hI4udrAmBDl5l8ZlLnnYZP11N96XcU4uuFxP/9OMMjokVMZdjDf55R5gH2xyZVJocnppAKju/TCYH1sJ4ZCADx+iKCqoIxLuZcZ3+73aob7D2MM4Xz8Vw3gfw8Snc2rFYsIbWuKwtkE2mBN04zhycsztHSaZB0V7YYLqYZBXrhpD+wpsxBmVa2BbcODYcMskfeAdGgDJWnysGXDp1RNMFtt8dyxI4B3INFrSB5QSsQ8u3NlkcBTgjhW9BKqGnAYGZBVbQmEXWr/Bitd06cJlJtNHFgYb4n6Lfv7WrmelgOEppytqcknYIAq/r2OeQ7EiumgLCcRFAMXbgRVPNTi0P2Ms0WaE0x0l2JObE06mGA+ed9jgMePU2Hz9huIXOkQ2WiiutTahgiKGnB3lyPMmMfhOAUKAtojS4keVgwiLYpg8accuivC2BlNgezprcpoUTwDLMM92GlZ8l8ifyW2WbSEWF3Sx8ysdDZJOt8vhMowvDUE++ACQ/KgKcNQVpdllUY1p3uI1OOsFxgOHI4FGSJK/UtkwGGjzW/oW+e6ruENDnKWAHDUmGMk34zs0OMx4Ci4rMNNvBIF0Z7X/MzrO9/sGaX5lndmv6HX+O/886SKZm7EucQvx+l3mAISqooXML2fAYp4YiKO3gFXUFT6DPdFH1j/bausIJEL+IR02zfybsscyfGXgygS2I5cUbrhyHakgwiohVRTq+wsABJ83VMcvz+vUzBDkZw35K+CbjFokXB0GWZViuAyQpRkBgs/fCBYPqTrj6MtmHqHCKpBZAjQMP0N6rnaSB90rx7yYkTvvkt8awCd2VbOtZCScRlNxr9EdFn1glATK6GiUxQ4y8zk5GrreJzZmIiixlnLfXSsZbuMc7PAnDWYoYGhedLNkw3mwwKpH8i6rLp0tHjKmnkGFVo0PGgQSwgPsDWqlcdFUODsMpaA8iOL0J8sdqRcoVzYTGT1tcsQv0lT6P1Wiatd0u8aN/jD3xbYB/RsEGnMd1STRtlqMHnE4AHK5Mc9k1kz1LFyqs2u+Of69N+GrUZdBxdJHOoAerI+tfNshR7T2PHtkNVW/Wg+FgPbwr2QrOCc6mOw764A3uBfmaFA4yhPxIh2Q2LCuKIlQLzbgvE+IzeLpuiIM8k2OWqWkG3fuO6d732HuYMJmeyOHdlYWLAhBDSO4PuRbc9IEAYS67NSY4RGyCSRiGtE+JGEXuB4Jfrn7nD++CPzJma8G13QWzvz13GNcguBAiUPS22keXnsnxf48yOApIPOgCeHaiShyv3x7Mor2JUvJLN4WHf5TTrYKo7FjeMcIDeZbDwK2d+poKOYqP0xUgaMhPD4cCDMYh4MwsVqp+x+1yEBRQrK2UV9N3grM6fIHgh05/hIAIHZflKm5FK0lEVPJ2S39+pwXdI1kvPofZAwD2e9RJNsjxQ7PdFX1t4ULiUTfjRvInBRkibfLMQuCNEnpzxMQ4O0OQHBkcLO5YqXdhvRpTeWPN5BUmddIFVYoIM7rGKJLedaPOm7QOESQ7N5j4kRqx2QIh8azoKYcD1agCvb16y+juPrru9ketO4ImvQbaiorth1yhNA4uXzemAUdtfYRDTlkzwqWbaKntBiVQlJ7RXySeWD6Z/GEdu+6x4wxRADlwuznw6u2B08eT6CZm1eT5o23JYJPluSIKHHgQDCJIpZ2pOlHLJFcppzQUbv8pWGD4cnhlBekjN5YmWxPT6lsd2xFK25S6xAhb9dR6hX3+Dqe/ST10aFQO1/XoRwYseZZKVtDkPg/gbavpypxfVFB4aMom4a/ygpV3E40jO/FKnvxHSw3OA9QbYb0jX4VVzH9f3MD9FXqnJFQ3rypOZwxdStKryP9zW8UQTXE9jTIHKbujp1yySa2cpV2N9VSxGH7Cew84/YI7dMk3dAKP9jYJgDIFiFe62t7KJFMFek4v1d+PNWrJjjMz/k2Qh5uujeJl3jsQ4JKGIJQVEl89Q3wJQQQkeFbFYT0kV1T21wEO35OAf6wySPpvHxEZ9CBmEUGSywAUutxgfcPRSGjhFOSfWDIcJkxmZ9TM7sm2UKGrfJ2ycFGzbm41VeI46/PAcz0RUNx40Ecej0hqT/Xj9iKahjWuKWGcJPP/4mBPXKavkIDQLEPblPmRMWBM7SLG7hAha83jOqDTstHCklMrMZ+6KeWAXa2aAtEyt94po3jo2UVF+Za6F525obEodU9co0PGgQTsgPsDUB5Q0erT8NBVy8o9/ijxzVV8RfreYDeYK/J1WcGZFYFP1SKbRBy2FiWDKPqYHauJv3j4cdQE77MqKdyYg5cB9hMH6SuWCL3QMONEDLRcOFyWJs3U2YNf+GoKKzxqYkQwI8q/ucXmRCSFdSW1tXCsGwiRTmXldOdRgp+13Hrf+qs4ybXB/r5Kh9OWn98vDqq9wg5pBtHjF+hp4/uTfxzTAeniDKHlbCEPqRX8ww9NfzHHNfkCa+ksSJBsIrhhNhGzzk0mWY2k7yy58YtdOKRAFAIhDpjENgYdqQ70MBYwYjZcjagsZuHJ+n9/Z9UBYColx3O6KOar4zWNpdLYpqQzPYLVmUGLTpJ82pzXMTe3p6bBoEzIHUD41WiEqfcUaHqvUb7B1wETKThIewU4trOtCoPViFkcjwyPD+UC7Rm4RDVQCru8uSAruZYzVIlydJaW1ap7umgQvIHsuSKwE+Qi2KRG9Ol4R2wwasJTdXeP7Bo/CIIx0tIzdAUsx9DM7imjnVcrWCO5ENahX2MtwFGIhXgO+rSuZEE53mvS6P8rXA72Cht6qCksETB+TX5syGJNsgTfdBmbMCwAefifUNeXEZsMwfI+MONDdWzEffrTllyj5iJSUX+3/bAkuUT1e9xosSJUK4nwlvimGrAt6gQS1M/YvxL2jbLX0B/hOAPKqBESt01X23a2SydR8D6hlbF/VS2kAoKdivZYbcHKHZqAMVkZMpHgHf6wcYTcGU+MmJKi5wYQvsL+3nEMGTRyinWxGV3I8jaX6Y11lTtFF6Uwc/hj8VZfWqNexnflRHz0fDGlwx5nf9YZkorknzeNqCQiV27ACrRwuxAxb36uEiholE+v8DwaqrahwcpRb97zHeYABt6Q4Fb34QWXuD6q8VphkgkyXW8G3GcvUDX5PdegFzQrNQtq7KyNzLcQUMAGErQXENjkzZa1HsDZHpLL38RK4CxAnhcbsyLcomwV8dUDKzH+lxylnwIS/g2kgHiO4ZzZo8ithANOZo3INOEzMxwPt+sG2OgCeWcBONGqZmkJexTkM0OZEz+CcGuHFwGyEY/SCRDwEyMNt/ZTe3DblFqPyFjb+Yrjg5FdJuHzFjneZNxP6nd2YXxtSNrFkCFxtFuoJcP9mXrmXWMRhSS46L804o9W7zxH+1GPsWY9DUNHbbd0pJdY58LVZqz29yIs8xcHiEt/a9AcbTGi90yesQo6Y3VURC7kElIgC/duAIDuR4tzAAlXV2VFxKN5sgDY0K007O8da7k2FrRT4d7M56LSo0PGgQUogPsDUK381gV0L3kirHFFRnzMP43xeY3sh1Tj7XdxraASjBh4niJsVnIbI1ps3ZaRT1upys3HLKM33TNRANUZ/ho2zimiGBWEpDSaDuFJZZgE4a1RwACw8d0TDZBQw+CiWH1PvEc+bROI65QHmvmLTx+U9dFKaPdRXVnoCFbdxgXIzyqGkff4bKHyayoLjCZhVlwx6sKSSNxnDbL/WBsrY6Q81Is2yzi4M+w+lVXqfMrTOEsNlBHOrFxP1OICZN2Qfo3xWZl5MTPw+9V8sVAxyt1LBq1P0HGFnCchaVrZWVqASKpbEfQ0dYzCU95W9hUvHgmryNjYyeCAcchyFC3hzu+ar/nTopbci51rK5OkccXu9CAquTUepne9XVIfG0nLDl+TYXcUAx5KusbGHMUAIdqEr2xb7REcewhUIJ1654SrAxtPuh64aM/I2f8xW4Wj+qO/HRGZORLh4h+Vf0bxVDa7rzI12EGrpfeWCq/tEQnHPbBl2uDqMX1goS8y4+gg6Z3S/CLciLuRazyDjRofwBBTVeKSBDl3N1hboljaAP73uAhWSfBceigT8mHRCUjiyQf9lorueIBRIIh1LkQl4W1v1wQUVoifhQ7DSRr1SCHz29KlaSe6r3Vn+ggxSWFawu1E6kpFDvSfEJcTNAnRMvgfBNF3fj2xNYDmHnm0+4jFICX1vQZD6v3v/0ORSJuAkIWdfTT+TV68K76Y1JHcvTCbucn1+CsdJUmJelxj166tqkjjZDABYrtxM2BMStdcuJk7RJFAY5zHhtY7dkc7EC3V1uKKZX7NmsCFRZjox2rgeXd/aazuguwxMGnSEpHK1vG8E+V1riRA8lO2nhalaONIy1Ct4uDTob71G3a6Uowcf+93SGxoKcsX1LMx2ABgmtuDoZGyFU+xXcJiAzFV0fW+rKWCy9wrv22+7JS3l+5zKzGKiyFeCK9eQ79y+2/NMTD4jKcdTMXUU6NHj6VxFUtc4yQnv5UhH0UihVldN/ZG/5Wxq/rd+/XSjtgKW6RivGtvqa/KrCw5U9B9YwJAN7EfT7VtCcZUGus/T8KcTAkVmpa9hs669pXKCLixm+Gl94fmKTPx8xKmGrCdPmU70JqDHxVRMHB2kE72kqRIfXpdmnDB7RVg889j6oQKtLMST51u+Dx1z9Oub86ILUn8p1Dj/a3QTLOBB6OSX0EpXvg/9wOd2i1eg7rnF2gZASQTmT4rOqwdeuU2C0tPj7kotWav5SXugUpbsCdiwSROV1HEyss9iQVk11e+CjTO2ldGYo+eo0PGgQVkgPsDUIxsF60zEnHdvRQr6VImQSzHKE29x1qwqGVE+5FTxugcePsNWYi7NVzmyrLxtEjOTxLAUX1SFFQK62Qomq5qZNoabTuuCob1Sx1Ypk9ar9UOTPbds+Lbh0G6SQ7oEKnSxZKUn2xZJC1Sbn7hq5fHTxXO3wxB0tL5IViKhBOjT09XILNlx1kkuf1q+sxKt5TT6RYGBk/04/KY8IU19Kqh9MYHW1RGog9JTuaOdD2Iwy+Q6ts7Oh9U9aSWtIHTuVpz0io4x/PMMo0TASU+twbJkv+wKDXXRDoEyz3DPq+oSYujasDfjhvpsBx5QHcPu6djl+ynUEaqslVrVf6FO1rf/8VzPSe6kCssPMlzwpObwSxrpFWCYy/JDBf9UvaKLTVhnDmdxCgeA46977tf3leOozRQaEi+YAgXpwpaG+bvrLNQBcueCHvLeiAk5zgSNd58WwIYZ64tCkoZnc+8ON+ZXBwTKQlTYEk2klxIcuyDVvtswvJAx12I5IZL/sRCIT4baIuLBn7nK0iM3qJdtajFC0vmoPVrEc1rsy+I+Joo9/nn2YNiF/MyLmlgcO1Jvb/S8uf/COkc00qY39RUdy+20WSTp637zkn1KXEEjm6QLmZ/nDbi8AlhnD1EYV4uqAijIe4GeMa6zpmHg5lN6+mnP6B537NjC6k9pRIQkVAMpIkrwmJoc9cXe7kEyHMnaKKsRP+TCvNaCuJuzj1OijzTOWR2J6rSewiLnSRQsCWMrpOPerQhBaphEIt4hAIOrV5SHW8AVps7l0DsvGpygBiwew08KwbXRaSYQqmhm59WR69z9mMHMZQjnkTPzO7zys58v5tYqPILsC4FzEWPknQkgFCsUJDJeCFavtNAwqJGwvMK2n8jOdOFTCimcwvBt5hoh/jFJVO+iU+TQImncWOenI+17PFQlj/cySg1fRc779kLSxYO9cNJ/uIUjqPd9hS2h+O7TTVNg7r5qwr5CrO7U7YJQtLKKEv3Pj0Ztv6mlqAtESOV7FB8NXkL1ZlO2dkslNWiDJADMpZM67u2MUpTph+Ndd1XKk13pcqQMY5hLFKbFEDR1KVKN3vTUpjfax/r7HaDq9XouMrTukl9fbg/5Z9QFJ1QM7uZyUk5Oh2M29/3mgLmDbb+KggVvc3gvgE9W61ytKKxymXrqGnfxqsj7YQq/rt636eN/r4l26iGCkaCyYk1DclCSNJJ7Gu2ia9iCIUnCW7D4IluSV2Vpz9SqIErw5HCxIh1dX1cqmxsGC3aV+PWP7Wzz25r887y6a8go0PGgQWggPsDT6KOdTwDmtC2io6En8k0Zi//C87Osl1wEQvTRY9U7b/po2WWPdMK6SHfbcLUZi1KORcQvyqUznF2xGR4wvDFLvSff7FIPBUcY5b5yh2rEt3ua+Q5F0ZWcSxMDi0e7sRyDa4yHM8tVSaL63+Vc4foFOXDwEOmpNvbYXu6WH9O1WNEF9Gxjeg2ogEXgzwcflR80/ihPw96ttX32ia8qoqS1y3hSy/5E2eHYLWOOkQz8UjAcXm8g48lua8vSUNpPDPvbgEgSUFAeJGcXu3d5O8pV43/3svWZ76VQ2w+pX4KH88viZgZgjyu/TEJ/ZbMrEvGKxxHqb6mTwA4UHg2LlXytAzyZJ6+M87s0QqzUatJnWx6Igzlar5mix69cgijD/3ZPO8CHZKs4ZH3mV5DpSmvEwQTeI8h8jJW3RbHMB5FRKLGuCno1p+Tp16W13gqRApEbsJs4inxKqdUrJMP8sa3GYJT04LprpjKGClQ9aX+xuEIEJa7WZlkudj/4cIBQrz2q4vgdpwqBKKLDAoQy6KcLhgkK7nkLQmCzb965qRXa15DJidu1z4yzAFi0mWE7Insxj2pHKStaBuJ7oRWwH7mV+on61CJqljIM91ieKSmc+ZVG7vxglDthRA4zsLgkO6+ETaAhbgUMEe23KpNXbTqbb1DcjmZZGCfQhrBRTcKhQFviXuSKdfzeKmM+QEkwxj5F6Qjaf5u7TAINUmzm++5ungH17CBCLMT5wEKvfCmSdpgmJVdkXXx3x5pzrf0nhNqLeW1IakvITCGE9VRPeJObYoSXoqQGPsLG6dGjF7wSC8TPkiawEPxxV2wShbn7ZsAIR30xC5Qp1Pi11HXZA1IoU/9MldYOlXJV1Kp86Yep7PeTMSyTFYItRYyVs2EMRaR4kolFL4ookNy1Of/r1jLzP7Tby5aYYFmR8OmLmo89zqZ3r2gPgIGga8fHwd2RH7EiQOxdU9M5n7Asxg8NLxNMdYoqVL62uU2wrQrRkjBqi2FlylthyePeSepHeiOmnkAoS+RwCaTSTP3ZVWNG2cZjym8btwHPYjlGQH/7z9wDO9dFNsNUEpKR1vO/JXQ1QbE0ExuAAltExO3pFb5RVl95aOjV6NtX9tPq3mNIK1CaDjf3kYW4/qUv1qcwS901i7ToE6XPAazzJqGt3cHBtBst5l6hHSYqsF8Me/lOuiSV8fx05v4+PApjdHgBdnUr+ZFGfBHfDod9G/1oDJYmXWuoQyYJA2eFR0cLrh2u+3SzU0Jn4yJ0k2QJKQ+DY/Qe2Bto0PGgQXcgPsD8iTEcGvjt7si97mku7jy48rGJ5Ya63EWISqzUHfU+29yz4l+syKCxVRZTEW6kfEgiIOat6osYAL4HutlPovGG/OINVM5obhqED+GAnEJUbgoG9eKj4wSycfKZAD/UYJlV5XGU3gK1WzpHaybWDXrAvU8bJnlNWNrd1rOfZD5AcsBlBYOYtFR23kiRNzCnGdJ+YPdDXSRDF6y64XaB8v/h78sxGGnkg2wBQH5bIb8xbRUGgfPaMIVLZFDZxhBlClo3/M6WYqU/kCKVtepQDiwCkmoauFyKA1fTRtonfJgrO+fdt/lVclLba4BYwvzHBzba3JN7xDmpUFyA3K2pUPEzW3PpijD7fd5ZE1DRfGWSwU5KTx6YIvyh2p8g0zsGOx4qYHd3dLgLqhTMI+g34nJkEbYXpOItH0q0k2F/Uh28o9aq2yWMCtfMF47MGpWa6UHNg9k3RLxzOTQF2xjjQM9P9Kc2pvo1uDBIN31HJVlGTDrsgrEBehmCtCwunyqGmcUfqrSnfl9F0lm+Ud1V7Iib6V/6ghfzcFKLo8dcABtRmYRRXyiwIQjMGyP1XBsj0SpKma1VEctU3zAF48P4FciegsCJgi7y8WYZmI4gcn5O7JgroBiRQmKiQLscXkCJzZ2drMMiCyLJWo5LVI24nEbrv4QeqHfI1ceD0XvDWEBje3tHCTNNHavSDSa5Ce9rLA8PphZI/ety4D2I+UBVuMFwDgWTISxZ+yIGBcWZtDK7pS4ydaDF33Bcjuc7a0nvf+QXQB6oU2wOFLvKS6RxebI3+kJuMzPdnd9y+3AOeECcbv6xRCyFTfnd73zsrX21gmXqFjPbcn7Z9LdNY9kDnGZhlB4akwjfRcUVan91h5wjySKQ5oPs+q9YHEK9XusHvDMznRYLTNYuwH0OKTjOs7lFBzswZv0hczbBeDzjFYsMf89RpmmzNXBMPhAG4ivBDnONDoc/c+00yMTBoijD4yux5XHN81Luf/qD9f2ia72gL9GhLVASai7pCaeTgdJD6qmcUyUKiJUdi7ZT6wVKH+y8mQGzhyEX/9eOQAmNob4vEV4QpKJ+xURt884oNUlXjQfViAZiahazVYxPV2L7SRNiR+4CYpzVePn95DoYfupUEZrfcmOuZZKnr/H2cbv5JvsS4EO7A61w91HPv4jOJcZqqG8Bi5Hx3geR/ccuZ5LZtwRIjHsxkieCKBe77Z7pC5FA4mSgq6zuhueB4Ey6L368MHa1xeB46Gm20ci0b0WjD8Ot823q5AYG3GijWwrof27o0PGgQYYgPsDUAchNVeFzfU0p0XNs4YVom4UN34YtbUef6NcF9ZLaHK+qroyiEHhmKwzYzs3iE1Y9LuMryj9n4Kqh50CHqCMjzplLEn7WdTQhZqAoVKMrsQ7UMiQzKHklkx7I79pezrElp0TcJ16bTbQY0IwtagaXMPpEipaQV71BjpzP0eD5sDoKZ5yfqKMAfGyKJGSlE76tHJFEOKxiRoDABsnZRrg02E/NVNVySIMEboCokooIaF4AgKK8r7JKzZu50yQ/bxqjK5leTX3sbVSZBwvznfgw/9EsAkW6xWR21y4Q5uQhw70EBErffMQqBlF53v6/i5txQ6FtI24eYUsS2eldMThSsAPPtezc00bJzF4NR6XEUEOeXY064NsqzApSe6eqxVags7VagJar41yQItVwRxiY3RPOkJvoO8Jr+3PzubxNVFQWkNs2fZVtt41laFnXwu3qJp6KwsPpmm6Dbpdy3pNJDz9dAkrHwZYGkPLpK9wQGQ0f8/GDJW1pZebV2KJoX9E7k4WNXKkZ9OyZOCYtPZW01gNHz2YQ1QCgtmGr9CSnrfhzGa42xl4xXzLHkYFFcIV+5g1oXpulIgaQnJCtfzcawwSDwZ1ye/Ss3yI58bNQOWXUsuVTiPTOH10BwnhQP+3k7Ou9nztZ9Qr3xqOSx0O7K2pxLrfqwUyHTmmv7zZX3myOQ/YYJsafkQweHEW24yP/w2DObVRUt7ho1bJQ4+UL2OfIjfv3X6vS5j2+btU4XhEuwtfx9Ao+VmRHPgd3dQgf2HY83qc/RnEn2MhtLct8moGvbNbDqxaypU8ERQUhLbniZ1QGxz8tvJK1hIslfxZE6s9ra966CoRStBh54SNH1B0iHhUmbkQiRzfvutFuZnmT0EQoeXyDkqMiM9B3Ouwl2SB/165ngoEybEn+71rvP4FdOOA0345bTMtzfJ6KGa9fnGdisdavwr5NEttW4UtF3kW6s4Y5tF5FR+c9sFsgX0kZHqMILMwPTgeJRapeOBWWcYfQ17OMFJ6XyeuJLoKaOhHCfXrJI/M8exgcdBm8wbATVKRxroKHR2AC6IwzWAVSvrIskWEWOuHSRzX0lk1nZjOZQb12IsGATH49xoHIs4Nlc8/h41XJ1H0i9p4+BhYEdD8kHuV/iqCHb7fjB6y5jjdSlmFpJXFeida62Uwr1EOYKByCp5q8a5VzaSTIdO9HqputRCaEu29GBODBoH1efXXWu9f0LPmAlG5dQi07ukKIJ63xh0r5eCQ/hU4zjPEXH6i7vH6L7ZI1tDd1c3Uo0PGgQZUgPsD3AmRsV2kksZzZfTtNRKpRFWIuw6HYDrar6Bu7zXJ2qIsvH5KIici8TEIqo5FuzGsfzks/1riV3jE1NP/eGu4mQ5oHehwvTWwMeMYVNhVpeghDQUdjqUfCpqj20P7xhngY6v6R/NoKzbU7QgQaCXs3tIOrJeAWyHH0Gc6oxBPa3TT7x/s7LiDg2966IM1Omxozc0F0OC3NtSV9cBSp4VSlqx16VP2CheH8l9eAexeE7lXXWoPoLevFM+Ns9qbk+D2QH8w5AjuXfUP9yaaOMxl10Y0GqasTogmGIncDePd0RrzmKLwK/FAm3+3poZ23To8KW/VIom9NR0rzb6v64OLA4o+Q20VM5sSp2Sg4Fh/RiYnFI5b118N3aBjgqv7OjdwXMOqjHcOGjzcd0ojZiK2lIFM70iOgEOZRIqy7YTuol1QdL1Fh2+CR1vj+OiF29pcQ7tn0+dBrIT0XvPT72i7pjedvCNriQqEuyILE5FWIgKlribri8aO/QrzsvlWLvpcQTgdCJ5qkMdEI+mID4cpA5l3xvqa4sPgBhJo6/vI4F21cZA9O9OOiAQKr9o1n0+CKZ71jDWHst8C4UNjU83OY/kXzzkNQ/ilpNlclq8t11y2Utbd81lyKFKtYWwjNreHfd7l1FJ8bBXwKBCxALQj6y9mlgUlhDrYUAQMOfBvhJljJ7Xa2XQxmVkO/IaLF8i0Ptg+aFEHA5V3xwCGU9XngoOuLHYylt/oZT1HhqnbDKKnTtfrOspIq9yvqOXhdowzPyLPapRzzvGtGNYMqUBgvUe2JrOX61JVpMop9MWO1vmbD6h7fI1MVNKy6ND2HgU4x3nPxLZi9huxdWy2VRnz91B2TgQk34NoALwWiI+6b8UooEikOvcyZ1yb6znh6hxDmD/nHX7udeozBYqKyhAjmGp9F253szL2eT8RrF33rEi3X5acTHKPqpjqqbp+6PGn+q7TpWDjxiPAfvHDziWb6gTZbNgYQ71C2DRa6qOOdVmk4Ri8nfBfaCYXvxIzeOqRtThRzYLl/ZAB0Q/vL1MMekXLra4xzHadBBJ8fuPw+eyQKOToEjfP289KMcrghBBhR/1wOsJyTlMEZnIGyOAidDJ+Dxb+Nzlw/KSGF5FnnzR6cRiCTkd9Fyzl00KT0KHhqIcYskNUey+xSNPgTdkDbbMTzTDz0s628aF2oWM4vkcbHB+uXNalyxhsQBepCO1WDOAm1osICT+TSE3xhxD+gxmB8br2aRzgn87Xtg8g5oQMaqyhZgkrJ9TWRa9qTCVio0PGgQaQgPsDT8FvPAoVhZp3beOqvWykX53CefHoE9EiLO9dlHxaW4qbzLSy7Kb04YyRxm3/AwMRMcMGDFeRbV2JNaZTvTKMBTUtEwYJy+v/8TteBjJ97AeSb1TjLgbbyLwSJtX8UgJ1z7jxKOFarYJToL2uHrpLY3Yd0VH4z1WIpzbL0tM+OPskfbaENZ9d+vCCtorl7ihYPxSauw/K9onvAEzl0wG5P/oyfq12wmrSvKJ/99RfAuaARdveG09lk26m10xH10kuc6Pxo1z/ckTxZS6XmB/mv5DWfziATN8XxvWQBaekIKj3zgJREACQCOIe6KMTUWWBHF+YUr3Dky7YAugGF1upTYuaQLWyJB3eVm3U9wJbhuClIx6N5axBY1sFDaokWCLLBycgU1XuGF8L1FpUVeVj+whfNbDzDhxt/Vrq42A8JFFQFYm1sumAlXfo4ZVJpvX+MqWnQXWYBVt9TNJEgFRAs9/2JxuDIg3tvIw860pEygWRvtH4xOSM36p8eG3qXjeKnygfhr1zBfG+jKBR3AyX9C9CYielfQsPsPcB9xg4Fut2l35p0e03as0N1DwBqgPfGNld6JTgOrYAU6NuJFlOSsnZFE+7Yr1LOJmAYWr64QNPq9fuHMO5i05+aKo/cV5BlpR4GYsOOauccFxSKim8Z+BLudIj08G9cVVaBx3pRCFYd21lbc5ifYl67hysOdbic/wmihoJaksgjEW5vwDNJ0wtFsKYzICbk2Hqm55nmU5vmRqQmltmbdSi4PLXK9VoO5jrJJniO+wfGqBlS3yN5ocva4E2ptn3V5Y609jff37ErJVhILyaHiQsi3/n1TZ+y2+p6CQHhvBDvlEuyaR6Hlrp7X1V8zmz5jU/GVg/SaqxbZ0ovn7qZige9cIu4aT92iBFGeM0ll4515BxB0TguwmZZBX9a8qGNSGSgqR9v6+gM/H38lfUAoJfDNvU+Of1MnIeato8zknpLdsasyIu5haERxCZ2NeEt05ejkt+U+R/GQNUwf0E74Aki/TSUfwifcOB7qiKZvpi5B+3Z6GUwn8VILpNQX3MYQlkYVb1PzEeyBOYCboU5/uDTVZfQlzyTIeTd0lYD1+70Rxo+dUXGyD7kNTszAh+zBzZrIm9MGpju5XQNhrBFXYiQahuhNP+C95Xat3nUaE/Y1XWAK751PtuYQTUg+/JbV+ggee7A/Labxz4ghPqOwoVwLY2GqUU27rqifo5faWde3HmHhw/KJIqCjPEA9w8SY77mp6AkOU1BXICmPSup0i/abzoJM/fo0PGgQbLgPsDUIhpMr20xrcpfIph9gQ7GXgtx3e0B1mgwyifkTJA5KlUrMrtkV75v9pG6uq0CO9l8ipbaDQwTk1fyI3Iuh74i/6C7RS3WGxWl/+Mi8FmCPIni4N86DTJ6/4J16YlNZldkE8V3qYHtLJKUigXvU0EIlbWSrAGbN1CxGx8pMhk80h1mQD9PU1ViV9xbGfZWCV3ipWcdMMPzcgcUP9v86FxpVZHn20i5ReuvWzTdnD0tOyj0OFzC98TTiI6stK/rI4dinDo9UzlNiiKdVXeHmAz52zWPQnY8rURB8xBxBcIzrBJZTWDt5h8G10GJsANCIOYP1+70w2/LaWV+0niBA5UoP4asWPSScXGukb72KnrQMikdfjn7cWAn0zImDNuhFZ2Hd2yXuQhDwVfg/aC77nmW60VCbQAN6Z1P50GX2jRmNVQiUSeG1SAle86X2mENCk+qZkweb7pw3L6EJc5RxJQ3TCq/KjrhBHMTIINIxnW1s/SRyEwAzS47RlnWsKhBBR+QwQBr16SK4r/mHZFt3hZuGI4cuBXNiuYmPkU4/oLA//zRQKIOcq62zwtRIz8BGlYQvHo/kqWHcUIrlFvZUtNK+rWc0V/K67aLoLjqcxewnS55pQPUJlq+1y6WozEIZRlcJ7PFoynrH5Gttqa/r5Yn/GkgPrnjFaKelauMQpY5beyEkMqBAzK0/vGPXwkWzxSt/Fi6rG4bISGG3QJ584h+sTLwlQEKVvpraz3oyFc+2FvE9tQzwAKWD9GDywetvW+4GTTO7f4JDNT1o7YpbjQEHsiH3BXDJyNwfejf562WlCzW3NBxsBOhpMpWBoKF9l1jZmq9Kk8NS2bwAXdMYaNslAJYi+Wbci9ppY0f1yA4LyBH1ycgF8xqx6vL3/s1FflkZOGZQrTkha2tmrZ669ucfIgjFnIP26buJMC3a+WViRFaqfPjqjmd/mJEMOeG0jwPLoW6HIWe+iuagjKhIkw4Ue2oU2DfGAFjjdypljgrQ1XX5lhMzWJ5x/u4n1Bvecx8SNtpzlmtuFpYy7FcNwVhtRDHMyUZv4/FM5f1DTdKC+4OBl3/W2T5UytND9zZeVNc3MfJqSLqnO/Oixlpc2FI42tA4I47Ige+bvcXTBHoQwKc6CqCdOc3PtJ1E7KWRGL83pNNRrzqAemuBtQKa5SZ4QKfiZwuV6QTbDmTo2ah4twv/mSqDHEGcWDAo2Uql0O7mtCjF+RNXpKGo1jA/JgIXHHX7zyCZLxcGi3xm43wvIxsnM2voxEGh9bDcAAwwsYo0PGgQcHgPsDWslXBaXcZwakDHplM/CLBg+FchifrTxe9UmMKV82G0U1SQ+TRlp6dVQ285PO5MFs940Maf6d7T79C0lLr/kws5yfcs2IMkzxPMHHuM4BORpy7MpmJR7LuM4MReO2ZvoGGElycWbW3PCc7xLXuxQzafTrfEN3coKpt1dkh/j6Rm4hu9i2bESaKS9qN5KPQq6J9MYhEuXl90cAsmp6umzZsXMGIsdlvmB81euw85VUjOyGh2WvsBoGXNNUAao7yKzCNFNVrTPmtzdOrqIdTciBYgKxWoC60iNf1JnQD06J/s419V6sW+rL65AbiCsVsr3/cf02BZy7KAhctSmAvI1MYr5Fn+CP4bMzbRLJQL9zT+s+CucLVGGlnZEipCTmxSWr3RHrqP6OZG4eev3BCPw+jW6b6f6t+aaV+ZTo4zpFqA1QdIh4QZb24wXYsmS+c2sxal1xJkiS2EEZ2SzB7YOE6BM1B6b1qooA//Sdyyv8UP7y/cgp2tPEyzeh69mrC7+DX7/G3JqgCBoB3fXdhToxK24ODG7M8sZjxp3rHCDIvfjjLrQH1LTzGcwFNQ95/BvH8P9pi0OSSIN1ZZyipJo8phxAZ1DJKic8vVov1FzKE8uHPTybP7wsJ+oKtt4XJjf3czcYjneP6z8c1+z9zJT9iwE9co74g3XfTDJzYwPtlkVMOsoaviqUAtCLK+OAkUri3x+LN3zQpBwiVIgE0I+3/agm1YCPXl2ZqO+HxtInW4cx6FShegBqUXmcKGB/2/uMD0uC7DsrZNLw0+2g9PWd6R5Jjb17G2JyGo8GotsEXwBMuSGU7ZMmDMwgr6uEbaWcZfncNXQ/SAWYkMcJ2Dm3UVrFcBGJoBfJkgI8boMxf6b8duttSKv5gwIf6xgFvMYmr5ZFSfOJsjR+Cj04askmbyTkTmNgFMfsujUrUULbeEFdcbXr6JUbmsNbrnoEuW1geJ+3y5aLc7ws3KxPsczkg2FUFXHZJr0yrDXcQwO2tMYrByTBuvD8gJ+QyLl4sOgueJe2njdmRn4cKuJcXiMv5y+PemiXXRqw0BlT+yOxZ95WKnGkJJvx5OXglc2jgZQqs+n6XpPWpSoRAWM92UQOD3YT96a6jC7N8FZ6CJLpDPNlScU88jvzN9mrmpu9QYK0t2gF74cUTWX3bSw7qVRcf7t8nEp5SDxYUyGdgdIoNrQ4KHWCWKVF2Q8+EyFVZUNWYTEpaa4xpVNvbSVb9t2IEmCWqdxtjMwkg8fYYuOyhPDzPcyz7yNbz6YRUdCeic2+o0TtgQdDgPuD/BH/IFDA78MvF/vv6/+M0mRq9rnM1ZjoEP+tGZCEw1mH90i9P8V0ddYSwTObv85MmcGRhUqDq/zckY2M6IiAL//tOpLP4/VpD2F3a8ziRbWTytBYr4gvS4otcwjgy02BFHEi2buMbeODYGg2XO52VaiptVWvI1OMkDIJMdFYN5uxx0XlkQeSGmVk2RDXKAiVG2U9/zxk6knlInE5OratSevND/J7FXlkXgYtyzZZTZMNDO8ux5vocnlFTu5+RxxryQdmbYGLfJHZsHDp+fhLjDxxB+bw23+GQjbW5qDSmcgEbdk9WUDXG74ns7pCIOdi9Spkh0mHUibzQbL4VUxTdcnlc0f0jGg2lVOCM8B4uaLRsPSy8BH5EpQmmSXjg6RpEAVRJFS71bnGUzAm71BQdgbUk9G7v6j9N4d0YCXUd9uNEzNuT9lvkfxZssZ0vQrC/OChIjDCB/tScCou74H6qXK3h71D6rdCZJfQyd8ZLL9oz+RdWAb6Hkb15JEsnzRMl62i253x25HUErjLfZNCQeZu3J/WVLGj9pmU1oRAIiHUCyY2owN66SBg/tDaWqp4qHSsSMEh4ZlK4aIm/6yOpp8ovLqse5DCO62b/4iAegqWMLCFktMzIMj8XlgWoIjhEgagdPEt8TCt70Ahl3L6cdelj9etw3U9NtgPiwTXe8hRnFqFxFxtMauapCqkLrrJJf5k1cO+6/1yfBYD07/TuwQ+h6gbNvWuj5S+4FrN9IBp682y/syKBfVwe4xuLQgoJFP/w2i2QeVgUW3Q/F0kttMS8D9hihU4hVbuPGlsgR8blLMt2v6Q9C1AwKY8ACCL92oayEmUXR1E18Bs5E8m8twFj9G/vTkuxRSvkVTxIZT2tPI03XELdPk7qILtvY3TLUrhBWftq2JiENnRP3ltvgXfVoGTVmQg90Py76z3woc/5Ax/Izy9Mgxa6nM7kvD9vrw0XMJDgGjpBqg/gAw38uCcKr827gwsqDY8yPArrtm5BawTdQjy5+PsvUQNZyHP6krEpt4Mwa1cBv3PBN3f+tBfs6uj6YLBz/Ir65YAPi78qNdKnC9kDwyu7MlolTEjKuOi/lg3cTu4UuONW6vASyhpHJd7V6ISKnJMi8inkxsMkPVgQYcwXiWSnrivtRrcjU1XRXHrkpDXNDapBMl+M+sXJRQKLCAI8lh85GtLTna/QUnXIZOxQvKhViqZocEUiQdpxtShdJ5GgrEKtGXoMXF6n948DEL0PGwdLul/e0Rzibcg2tKHWbPNzPAqNOnKBSLMHUV5570uhS374OGtgvpbvIeD64TSGPJiFCU+LifzOvFQL+6U+XMWmCNwELrufndfXP2agL1gaTLc1igDnEytObDD3pzKPyKsMxgKjQc0MmedpjqB2PASBtJbHOd5gRzB30SsMWOVKo5955mf2kZ2X8CId6fOXCnyB0YcvZccftLsF55QxIoVLM2f8pvMRSJxq2xLAZg/tbbeGD8+SrkYtOi04wiZCxMLdn3z11tV9I2t0QHvxeWDN+DImKikuVRFaBstiIJZv5P2NUBgZjoMFltOntKaryrZyZ139pq7iLB0SN7DJ6gl31Qs/NdY9LrnPN5I7WWxlyAK1FYs+ntSb264u1eIF9Lf7ZhE4dwfIRzzuSsg24mMlCrRMi2xcUvktJw2XKNDoYEHf4D7g/0O/Q5QhBzfq9TCMrj+xfL3fcOyLSbnI6xy2rMLp3/M0UfhthT4pntWvg2FpiSRtvXp6oMeiJ9RTomUtLk/Wh2mZdt5XTSF5b7OAi3eliV77DV/40WaScsthZ3Rvdb+HaS3LjNys32xNnTehQlcSbAuEBlRE6GMD/PMHuGdC315wVyjE5Qzw86FwaeeR8FBdbeQEWbFYXAmNoJ5BaB3QSB3iYBRdIalXtnpx4TDD4zyz7Pp9nYpsnzF7qDg8blNbdhotnNMYv6P/lCagaPAlxVx/959pybsno58sHUyBijXZ0jFQLNNpPLvT2KqeGFeluxTBGHWJH5a8rH1bfzZDjEwIIWAMHkst/+CwwU7X3jgPGh01rPEcYO9YNDk4fzjY8FnN5lhXxZtPI1az6jPXjmMoW+1lRlIbB8+yby4S4Md/BSJXECMScR6T0IittasCsHI8wifFqj2tqHcyovXzD4e1xVmbCXdh6umdfOM9x/D1FU1uN8Wf4rMbnfKrVRaw8clqM4jc0GFXMCnhMeVQNvkrSgP/ZO2Ds1Yi37bhiagoEXldEulo9Hz+AKYYA2AI9x6Rn0g1fCgvnWQUocDMNGrorz7/khAqycgGNSTyhe/9S+aD+8cap+lAqx9lPqGQXyVaZDtJJHBjC3+O30sRTxp9gWdhN7UeUE/rGbpcyGKAV2P4x4LcHiTkGXMAedjAIep/V3cZ/KeHyl4a7qTyyvHydnTWuMqWDko/J3CiAuYR2fjl4ybMRaBvy13gUsC1qyQ26vDBZ6TpK+HPhF4EOlrYy0sIgMZbmuRs+dsqUi0i4j39dentJ07U64/pUha5UsNlsf5dZpcfp9KhWFT5zdlwY6W1vw2ehBOeQZ/EbZsJJkfNlmfmR9RBuYmuaHmsv8BrMIjtHtgeWTz3fQio5QbIM5LsUydhzmvNOZp4Zm7bt+gFYS7uEdaswwqfbisXX/k2yqapUof7625DiblousPLAB8rOV0tpAYs8j05eVlRzSqa/+Dna3IMzQ/3n92Vley/xdX0ELiEFS06Tbn7kGhax+OWf2dRkmnJBXWHME2x1776FnXufDZzU1WNn03IU/DHGwJ8SqokNiwt+Z9DMfl2sPTEV9cgcx0lX0bSbgKmw2NNS0NsEM+H+4eZoAfpoxx+xbmILgwxPPUp6Q9OoHoHkV2uiycmXfro2OTuN5iVxKz1+qMyr5E2G/MdkYT2qn0ep/8Cu1wI1bDo0OagQe7gPuD/A7/DMeMe14s34411/825U10ILjAD54Fx2EbuIg5zBFstPzE9AzNUnVT8Dgm0vfGUEsMmnufUM4HUMr/4tIigeCGYYX1degWnso3ZRIpIYVSdVh3w2TolX9TuVzO/CF20GzcHMSzWSBvI1R2c9fyfAKUFJFNftj230O76tHBLRZHTbJSIWT8tNiF+GHBW7MP0lqblUOBscJ1rhDL/c8Y2uQ5c3JZIZE/1cabibGSFqDHCfF1uWNSaWCPxkkQ6px7mRzk568dlYWW5rkbiOw+q+WUXOr0J/2OXJ3jj13o4g0GhyTLbZSpTFWznjotI0bMOHD4/lyuPyEbA4E5S3QpjsgiTBnkMBQGSePgdKriA4N7fDC0lE3IUUn92FyO08KpwU6qg53sQ7+RG2foyFqYL0LOlYpLnRCrUHiGIwFQU+O7xOkZYTDIod77DPxzkh/IMnoEO+bFPaqLS3fatqKHoHSdNFn86ZYu+rXQqyYzj3g8vXaIjxK3PFwtknqL4eThe8MLV9M6hiHGOU7VQDfKXuyRu7GBvn3kD98VHaxSCxnr0LEnSS7qcUIv2mcdfYGFC5RvdNZH6AORmD5y8S8e0zfMhFD4tcVmQHOymhP94keCKPRVUPmY0B/Lz/jc+errHssFwe1rHoHqkLQUlvJWdQeeYIWY4+EhjDRA80ZiDj28iTahBprh0ZluK5jQVGXYVSBxifoT8tUhROg2Owslryxq3FOsDMpcdEO58rhK0D//R3tUojMxI/+dIQf/k08FcjhX49ACb+2oj6kIgqDlirk9a96iih80lAIzdMr6CwXDwvdhQsOTUI5r2XrORa8K5bZQcvMIwOK/DvT0qZ77Lvrm3y+Uktm6FKY8Tz5x/fIYx5mP7aKGE3ty0w/to+UG9YWQQZFCz2GZTjhA8yGgc3rA6pYmFMkTdyf6ea9Uj5Xfgm7hr4CJAFEPknKj1P90w5VOFjFLZfsUYGI7GeoKi5gpP8jVZ6DXgUcgsU+1aegrVH4GqF+YoJoTxQ5G/4aNyjiFS6KGBBC/mWGmyk7GOY0iG/UW0knp9L2SpRN/73iOZOu4jt7ptahLphje15ARt81lXCq4eAlF+zirSgF/ECmBQ1m65FWB+2y4ciuC77irBYVA1pngyjJIwnUVIf/n7sh4UvtdPj+LNlwvja4UDSNhujOUq+bR3JKmPWvciVFlghGI1fyXleCibDCwjYi8ghizb6NDooEH+ID7g/wO/w5aHDRCl0GN24/S6MumitutfFfqEBfoPNhuRM4x3pbkaXTgcs12zXAdAjtVmGnxf/rqdCgYYXNxoL23rI6pdjD0mxmA0uUqaRz9AtHCWAtftlpHXhRhnvoSk8ANxTPUFhJQxeCKLEgpUyPeC9BvPYiQshlXsxqOrqYnGHqZdfDoe5xftK5sjNqbiT6txr6p1JckDAKjufig9a2l94LePNSP2W0yYmvyOYOWiet9qj8VTylRpuTqzWHzP8qRnV9B+e4iZRQJO8ddAEHOZriR1ED+QISJIyZKkthKpdeH9Zfx0d8Cj1b5qEpEA3d+IM63vHjP2nxgjA5o9RlmRS+XzT2N1N4qZiPoaY/kzyjXJsCrzIR6A8xj4C4Is/R0EIU9dQDrMui2Dp77mVr1A0+Q+NWgLZsGrxDkGCLDlb3Rvk2J9Z2WkPvqZOmWPX9c5YVs3Fkf+9nOR9n9rYG2O01SFNKkA2wmoDBD3pdQTkZPjFuNM73DrWMgYzWf0hZ3w6R+QZnSfGTbKoJfUgSK41R49aPOSgduoGGbigR2f1FwWMhXkGAFD4VX5Iabb/n9A+L7eb6+OrMYwmTt6b8CzydXC7IlGumwsUhyzlGffOeqnMQ0onvQg1OvM6gWHMrosqlPtSPYiXj7vVZxqX7bdxdHuRtQrR4X+lv3J1R7HpK5PW+y6ZVQVOox5Ln2gVOnm/mPBCen1Y5UAlD2nZJ1Rhp3J+j85FixdDjCK06yx4/qTZf567YS/x3j2W20zqLrXr7/EXf0RobzkHfdPY/k/owhyJopSOb1z9zgQrS+H9MN+MFH25FHy9xepUwQZ/4vHK+B/IN7r1vXVJ+UlwOivIQtcinymVuxViCYTD2fCa87oUjxPSMuvl5A7sbl7ZIHYsNFux0XP/r7k0DIE60x6ylLF0vx5witjJUXiyZNVUKwFBQvZbXaaeZebn2A7AUUsvkmNt4DHAliMMY5DcTtiP78euc9TyzFjvlgw084IUZ1K1oJcrd7Vhbj7QZLFBxI13hgl7nlWL+eimkum2Jb8x2X115kxbTzEoyr37dLAeDKT5NjTIT+SOPk6lGay2X2ZdCojTK8IJHsF6JLgUNO7GyvQ/77R6NUYaYctAh5Y9u+ePywQcuavmWefVrWUtMQ5r3g8IqV0WvSy9+EYEXPm2fSTFhO+fKy/oD91R0wmf4n5pr7mwAiGYj9qBltQ1m3aIM4SCwdnIUuRNnaVqNDnYEIM4D7g/8L/A5QbJPVjK3P/Npv/3PNHrsdTM6P3LlyAgHSTw2YgOdTOqs1YjH0tWry/Xele/VL4duTzssvh3SXIqODB8QP63zLHRGYC2JScPPdIGwMjG4ZGoOO5Iy0VL1E4AO3NF+mhEjbR5KwWp/H1mQjki0tDHV9vrT18R8UIaSekQlN5N2EcH4F/gAQgwXaNU4WLtxwd2UNQ0O1IwRZJhu1+pPR4Y2KEh8rG3IuBG9YaPofjM33ULYI2zfGi6C1oSh2WVJI1K8lm2KyCf/HFzB5k6+Jmmh/rkKNTSK0faMGXfdoRf0H2kviOleByH6QW+f0jcecJp0L8nlVxfQSROJv4NQcDzxXV5QMu53RfIg1rAfxGsPQ+rzuUpCtmvwLxTz7ZM/Pkqe7hCPWMCyzgmOTjVAZ9GWvCkT+miKRJbndC/5db9dqHmVkY1/cCDmq1VWbHKsRSpmRAi18PAeyfa2BoQu62aTW1cMiggDVSVORcS+2xVDWch3PD2o9LprTAywMBWVKXqrr9MaNR3eoPGcs22I1OEQM/uG9CLnxGRaUqgHY/NJn/bMYvBuWMVaQ3vClw0Rw0DZr8N9gIZq/SP1pL2/ZR7iTEDfvCxgXSzXDXugisAx3P2tpDRYgxQ0cNvOND5BFoyO2BRQ1pc0J6036V6NutSSHeV1+e1jpc76h6zjUjYhEXay1PhE73Umv1cMTIQZTCNtuhq05npnN/ampLOSx/9CWmH1h11BoREk2U1xEooP3cjcPULXMukQphMs5VG0dZkp/qsUS0LSrcauEGaK2+ZvuTPv6Ukj6VbsUNS55pxZTWsVOWCkr53sVrFQp+EoRknmWtVKKtpC04vuAxF2Rk4YGBs/7m52qzNN+68vrsIh9IGfLWf5kTsr6GDYJEj1GXh7eMsWSqwysXhV8XJ572xj2CC3V8n6lBU+ajLe91+kBCIbMKjB/Fq4qyoonbreNQ1u3Vek+r8s1uTf0IE0nb90dzUt6cvUQrTK3pWpVTQ75eSGgfjdxL6DgW4YQp7yLnnjryduHJP/zPm+YpVuSrW7L0l3S0VSOxfDDJa1Y0KV+9LAqulMZ012jw2JzH2i+4uk9FQrP6wMxvD4CASKwkGEXfGx5BG/0GteydrzTx347PO4m7vmPu9GGCx3x9a7ROgm4G1f1PuaxyPHIm6mK7vG9ZfT+/S9VCh+V2WeSu8KlHuQ8k7tf7E8yKD7VSxAKPtMdXNKjQ6WBCHCA+4P8Df8OUIym0gaFKqQXgZ2s5xkbzjs2HrFSOAUsMZe/EaBfFKbdF25Io3FNPSe9LQYT8zFFD5ISb89Z+k0VbY4SQgHw4UNsZbSabw6yVC/+pG2vOeztBRC443AejrbxZJNX+KeE7x+SDAGqBD/0BCtlnPWnjO8WJz9AistNuSQh6mXa2JXxihUBo/tPxNT9B+m9C3zzUobHg7ZQIAJeG4b4j5n0aVOMXgNVSP7Sbq0lyZaBXut+kozDdwOzpYImOomtXMkfXOLfTWLNpn9W4SBnJ6FMQI5ghO00Pxw90saeUUuv4HhgZU5UaDu49BcSBGJrSq5DM6YaIdw7STwqhs34/wbjjVnTScFT/AkZhUeCxRDp7HLY6KjaaZjnvMeVyid3WIBhSow2CNHapkMr4NGea5oJUFAUfuO3CGbNz7is8IJHDE2+IskGiwvOhn18YJhYi0qEBNC57g14t9Qox+wwXv0VjldrwqDF/Gh10lfIMA+Uk5ecc3fFzXR2doz02gyBmY+LvS23WR5AyP5qWmiikQWZTuQLnHTsGc1er3QJ2IXp7J4csIM+SnBH4qK/tLzz/nr5HUglMT2iyZsVCtDOa2IUhqE6JcDNCmz2glctfwn8R+b5h7iq+ynomhYBaCbulvfLhZnVS87+/FEqU1XCKtpNP4TtvsMsKfVi0VSJJNBtg4l6HXCCkAJ/XriR96SCDLP/1NMGKlzQXzrK3ctw9gLbWfKGx7qTqwfk7Y4QKd2VuqFAeF+MyZrH/Zwx41n54oPF3fekoW3jD7zOodsfxrDN/J438RHOj4X8ZHrpD1g2wwG0yJtZz9qJxrL1NEcssJx9Dsg0MnCQdnELsfc68ValdyAok93lQi0cJHlsDFTeOd5VWrXGB2q0R2AKtWsH6Y6bjJRRJzdhmi5V3lSpRf6s2RyaHRxa9ml67j617cXVJxvewE/GwWb757REQ0OtWAvabeBlqVKg1Q/hdzKQ/Zagw7UhKlOppAbFKjwuHn6J33Un7lzOuWQrhUsRjFUtDqFuluCzqrIit30L77cWmxXfjVBvYpu37upXfuM6Cc1QvKIOMxSXuooaBx0kyM+0R7JB91SOv9bfDpZKSAhINW+YONGt5+npPjc9HpdvewlTnWw6/kkyqZg7ALeqbsbX2EKvie8Q/gW6B9Fqutw7vUQXpfpDkJEQBf+nMXWWzsjwjuvtcmUQ/M0Pjy7BLbM3gUcCLIN3xf2GuLB1UKA=","2"
"","","","","","image-button-response","54","191290","0.0-11.0-0.0","8ntn8ps5u2dkwvr","8ntn8ps5u2dkwvr-2024-01-29-01-48-50","null","","","images/list_1/control_1/2_Julie_Andrews_f.png","null",""
"","","","","","image-button-response","55","194005","0.0-11.0-1.0","8ntn8ps5u2dkwvr","8ntn8ps5u2dkwvr-2024-01-29-01-48-50","null","","","images/list_1/control_1/2_Julie_Andrews_f.png","null",""
"","","","","","image-button-response","56","195815","0.0-11.0-2.0","8ntn8ps5u2dkwvr","8ntn8ps5u2dkwvr-2024-01-29-01-48-50","null","","","[]","null",""
"","","","","","image-button-response","57","200339","0.0-11.0-0.1","8ntn8ps5u2dkwvr","8ntn8ps5u2dkwvr-2024-01-29-01-48-50","null","","","images/list_1/control_1/10_Jennifer_Lawrence_f.png","null",""
"","","","","","image-button-response","58","201614","0.0-11.0-1.1","8ntn8ps5u2dkwvr","8ntn8ps5u2dkwvr-2024-01-29-01-48-50","1272","","","images/list_1/control_1/10_Jennifer_Lawrence_f.png","1",""
"","","","","","image-button-response","59","203423","0.0-11.0-2.1","8ntn8ps5u2dkwvr","8ntn8ps5u2dkwvr-2024-01-29-01-48-50","null","","","[]","null",""
"","","","","","image-button-response","60","207935","0.0-11.0-0.2","8ntn8ps5u2dkwvr","8ntn8ps5u2dkwvr-2024-01-29-01-48-50","null","","","images/list_1/control_1/4_Stevie_Wonder_f.png","null",""
"","","","","","image-button-response","61","210068","0.0-11.0-1.2","8ntn8ps5u2dkwvr","8ntn8ps5u2dkwvr-2024-01-29-01-48-50","2129","","","images/list_1/control_1/4_Stevie_Wonder_f.png","1",""
"","","","","","image-button-response","62","211888","0.0-11.0-2.2","8ntn8ps5u2dkwvr","8ntn8ps5u2dkwvr-2024-01-29-01-48-50","null","","","[]","null",""
"","","","","","image-button-response","63","216397","0.0-11.0-0.3","8ntn8ps5u2dkwvr","8ntn8ps5u2dkwvr-2024-01-29-01-48-50","null","","","images/list_1/control_1/9_Kristen_Bell_f.png","null",""
"","","","","","image-button-response","64","218071","0.0-11.0-1.3","8ntn8ps5u2dkwvr","8ntn8ps5u2dkwvr-2024-01-29-01-48-50","1671","","","images/list_1/control_1/9_Kristen_Bell_f.png","1",""
"","","","","","image-button-response","65","219877","0.0-11.0-2.3","8ntn8ps5u2dkwvr","8ntn8ps5u2dkwvr-2024-01-29-01-48-50","null","","","[]","null",""
"","","","","","image-button-response","66","224394","0.0-11.0-0.4","8ntn8ps5u2dkwvr","8ntn8ps5u2dkwvr-2024-01-29-01-48-50","null","","","images/list_1/control_1/5_Sean_Penn_f.png","null",""
"","","","","","image-button-response","67","225614","0.0-11.0-1.4","8ntn8ps5u2dkwvr","8ntn8ps5u2dkwvr-2024-01-29-01-48-50","1216","","","images/list_1/control_1/5_Sean_Penn_f.png","1",""
"","","","","","image-button-response","68","227436","0.0-11.0-2.4","8ntn8ps5u2dkwvr","8ntn8ps5u2dkwvr-2024-01-29-01-48-50","null","","","[]","null",""
"","","","","","image-button-response","69","231942","0.0-11.0-0.5","8ntn8ps5u2dkwvr","8ntn8ps5u2dkwvr-2024-01-29-01-48-50","null","","","images/list_1/control_1/11_Timothee_Chalamet_f.png","null",""
"","","","","","image-button-response","70","234540","0.0-11.0-1.5","8ntn8ps5u2dkwvr","8ntn8ps5u2dkwvr-2024-01-29-01-48-50","2596","","","images/list_1/control_1/11_Timothee_Chalamet_f.png","1",""
"","","","","","image-button-response","71","236350","0.0-11.0-2.5","8ntn8ps5u2dkwvr","8ntn8ps5u2dkwvr-2024-01-29-01-48-50","null","","","[]","null",""
"","","","","","image-button-response","72","240868","0.0-11.0-0.6","8ntn8ps5u2dkwvr","8ntn8ps5u2dkwvr-2024-01-29-01-48-50","null","","","images/list_1/control_1/8__Pedro_Pascal_f.png","null",""
"","","","","","image-button-response","73","242049","0.0-11.0-1.6","8ntn8ps5u2dkwvr","8ntn8ps5u2dkwvr-2024-01-29-01-48-50","1178","","","images/list_1/control_1/8__Pedro_Pascal_f.png","1",""
"","","","","","image-button-response","74","243859","0.0-11.0-2.6","8ntn8ps5u2dkwvr","8ntn8ps5u2dkwvr-2024-01-29-01-48-50","null","","","[]","null",""
"","","","","","image-button-response","75","248381","0.0-11.0-0.7","8ntn8ps5u2dkwvr","8ntn8ps5u2dkwvr-2024-01-29-01-48-50","null","","","images/list_1/control_1/3_Patrick_Stewart_f.png","null",""
"","","","","","image-button-response","76","249408","0.0-11.0-1.7","8ntn8ps5u2dkwvr","8ntn8ps5u2dkwvr-2024-01-29-01-48-50","1023","","","images/list_1/control_1/3_Patrick_Stewart_f.png","1",""
"","","","","","image-button-response","77","251224","0.0-11.0-2.7","8ntn8ps5u2dkwvr","8ntn8ps5u2dkwvr-2024-01-29-01-48-50","null","","","[]","null",""
"","","","","","image-button-response","78","255735","0.0-11.0-0.8","8ntn8ps5u2dkwvr","8ntn8ps5u2dkwvr-2024-01-29-01-48-50","null","","","images/list_1/control_1/12_Halle_Bailey_f.png","null",""
"","","","","","image-button-response","79","256931","0.0-11.0-1.8","8ntn8ps5u2dkwvr","8ntn8ps5u2dkwvr-2024-01-29-01-48-50","1193","","","images/list_1/control_1/12_Halle_Bailey_f.png","1",""
"","","","","","image-button-response","80","258741","0.0-11.0-2.8","8ntn8ps5u2dkwvr","8ntn8ps5u2dkwvr-2024-01-29-01-48-50","null","","","[]","null",""
"","","","","","image-button-response","81","263254","0.0-11.0-0.9","8ntn8ps5u2dkwvr","8ntn8ps5u2dkwvr-2024-01-29-01-48-50","null","","","images/list_1/control_1/7_Tina_Fey_f.png","null",""
"","","","","","image-button-response","82","264621","0.0-11.0-1.9","8ntn8ps5u2dkwvr","8ntn8ps5u2dkwvr-2024-01-29-01-48-50","1364","","","images/list_1/control_1/7_Tina_Fey_f.png","1",""
"","","","","","image-button-response","83","266434","0.0-11.0-2.9","8ntn8ps5u2dkwvr","8ntn8ps5u2dkwvr-2024-01-29-01-48-50","null","","","[]","null",""
"","","","","","image-button-response","84","270952","0.0-11.0-0.10","8ntn8ps5u2dkwvr","8ntn8ps5u2dkwvr-2024-01-29-01-48-50","null","","","images/list_1/control_1/6__Brooke_Shields_f.png","null",""
"","","","","","image-button-response","85","273612","0.0-11.0-1.10","8ntn8ps5u2dkwvr","8ntn8ps5u2dkwvr-2024-01-29-01-48-50","2657","","","images/list_1/control_1/6__Brooke_Shields_f.png","1",""
"","","","","","image-button-response","86","275421","0.0-11.0-2.10","8ntn8ps5u2dkwvr","8ntn8ps5u2dkwvr-2024-01-29-01-48-50","null","","","[]","null",""
"","","","","","image-button-response","87","279926","0.0-11.0-0.11","8ntn8ps5u2dkwvr","8ntn8ps5u2dkwvr-2024-01-29-01-48-50","null","","","images/list_1/control_1/1_Clint_Eastwood_f.png","null",""
"","","","","","image-button-response","88","281900","0.0-11.0-1.11","8ntn8ps5u2dkwvr","8ntn8ps5u2dkwvr-2024-01-29-01-48-50","1971","","","images/list_1/control_1/1_Clint_Eastwood_f.png","1",""
"","","","","","image-button-response","89","283706","0.0-11.0-2.11","8ntn8ps5u2dkwvr","8ntn8ps5u2dkwvr-2024-01-29-01-48-50","null","","","[]","null",""
"","","","","","html-audio-response","90","287914","0.0-12.0","8ntn8ps5u2dkwvr","8ntn8ps5u2dkwvr-2024-01-29-01-48-50","2498","","","<span style=""color: red; font-size: 24px""> NOW RECORDING</span>
