"success","timeout","failed_images","failed_audio","failed_video","trial_type","trial_index","time_elapsed","internal_node_id","subject","condition","rt","device_id","stimulus","response","estimated_stimulus_onset"
"true","false","[]","[]","[]","preload","0","11","0.0-0.0","qcq4wxaqbnzo1hx","conditionC","","","","",""
"true","","","","","fullscreen","1","2959","0.0-1.0","qcq4wxaqbnzo1hx","conditionC","1936","","","",""
"","","","","","initialize-microphone","2","6159","0.0-2.0","qcq4wxaqbnzo1hx","conditionC","","30dd22ab2b37206c966e6cc1697da94970f6bc28a96247bad18d1b2142137ac5","","",""
"","","","","","image-button-response","3","7968","0.0-3.0","qcq4wxaqbnzo1hx","conditionC","null","","[]","null",""
"","","","","","image-button-response","4","12470","0.0-4.0","qcq4wxaqbnzo1hx","conditionC","null","","[""images/celebrities/1.png""]","null",""
"","","","","","image-button-response","5","15184","0.0-5.0","qcq4wxaqbnzo1hx","conditionC","null","","[]","null",""
"","","","","","image-button-response","6","16992","0.0-6.0","qcq4wxaqbnzo1hx","conditionC","null","","[]","null",""
"","","","","","image-button-response","7","18804","0.0-7.0","qcq4wxaqbnzo1hx","conditionC","null","","[]","null",""
"","","","","","image-button-response","8","23307","0.0-8.0","qcq4wxaqbnzo1hx","conditionC","null","","[""images/celebrities/3.png""]","null",""
"","","","","","image-button-response","9","26017","0.0-9.0","qcq4wxaqbnzo1hx","conditionC","null","","[]","null",""
"","","","","","image-button-response","10","27829","0.0-10.0","qcq4wxaqbnzo1hx","conditionC","null","","[]","null",""
"","","","","","image-button-response","11","29641","0.0-11.0","qcq4wxaqbnzo1hx","conditionC","null","","[]","null",""
"","","","","","image-button-response","12","34150","0.0-12.0","qcq4wxaqbnzo1hx","conditionC","null","","[""images/celebrities/5.png""]","null",""
"","","","","","image-button-response","13","35361","0.0-13.0","qcq4wxaqbnzo1hx","conditionC","1208","","[]","4",""
"","","","","","image-button-response","14","37166","0.0-14.0","qcq4wxaqbnzo1hx","conditionC","null","","[]","null",""
"","","","","","image-button-response","15","38977","0.0-15.0","qcq4wxaqbnzo1hx","conditionC","null","","[]","null",""
"","","","","","image-button-response","16","43486","0.0-16.0","qcq4wxaqbnzo1hx","conditionC","null","","[""images/celebrities/7.png""]","null",""
"","","","","","image-button-response","17","44648","0.0-17.0","qcq4wxaqbnzo1hx","conditionC","1160","","[]","4",""
"","","","","","image-button-response","18","46450","0.0-18.0","qcq4wxaqbnzo1hx","conditionC","null","","[]","null",""
"","","","","","html-audio-response","19","55584","0.0-19.0","qcq4wxaqbnzo1hx","conditionC","2362","","
        <p>Please sing the first few seconds of a song and click the button when you are done.</p>","GkXfo59ChoEBQveBAULygQRC84EIQoKEd2VibUKHgQRChYECGFOAZwH/////////FUmpZpkq17GDD0JATYCGQ2hyb21lV0GGQ2hyb21lFlSua7+uvdeBAXPFhxYTvzwQTYeDgQKGhkFfT1BVU2Oik09wdXNIZWFkAQEAAIC7AAAAAADhjbWERzuAAJ+BAWJkgSAfQ7Z1Af/////////ngQCjRCKBAACA+4P+M/wLflHBiLwF9da0yH6jObBpWgwecsu5m4mTvtHiPg12va4klN7Cq/G5T3PRQKuKJKW3XVtOY5ND2KQF+7wDh/h51WnRuoHwTcQAgBsHMLok4u9jnI0R2D1dcYiV49f5I7JEDUo9uVCUQL88UkJeO6n+afU3RAf7pWIaybnNmDVdkm7+fb4DFZWyAFLsjMlyS055k1uoffj4XRZXsSjccHODHPl2pPffL3ijSEd2zi7CcAl8VZZwi060W3YSwRNKIHEAkYWSzNFbCV9rXsd49QAAAAAAAAAAAkKoP2oP9s0+zHX7OSJdh5mBYw3YRA9PFf2dxrK1XdLA19vRwj+FGMwgckfB/Cwbq0rQFl1OgRBZhI2Vc6fg6hQx8bdRN3gP4DisZM4aNgq3ieAoxOJOvMXrNYqQoycDe8/wISSDdWRtZyFK+KfSfixIdgfHu3KeceVFK9ZMzCVSXNFsrjUQyAWHD/2jqz5VA5mmkCYBGpOUR8aiXTzsNILhvZJ7mRH0nq+hNaoyhOTvNt7eaJD5Dff6+B57lBxTGKOpcrD9wdnY/hIzHdrvBgCLvBdF1co74pCN8WCNpMz6syvBBIc9A47x6SjEG5CAH7oFow5TIhFXp7P5MbkIbprSoEokIQ9C8SbjppOcwXMLtlmL0vBKBx8Iqv1QeUbScZOkP2Dsw3AfVxmNrnyQPZyv+NO0zmYRB5ITmkfipxhg18oMz2M7l6QS4+Lr8xH1PTwj7EW6zyPt0yvUyBP3QKPL1vdSvFRm3wTyKdU3pam+1gvgOhN9ZHPmVzkPpgR4Ovhwy4OOZOivO/MDme2nI9k6Xv2lziCjYYyBqIhNeH78SRscqNUTaVTdFXeoydfl1dPr9zw1aikd1sYUud7x70n6XL1Ulz8ml5K1NXDBZZ6GWFCkzoBnIrlSoQi6NeRBS2+mH+H/TO8OF2heYg/uOuGy3VC/0R3u73/lXBPgu5YEc1NP4+z/ENFOAGmq7XN1oPF4Xu14GwHpT2zmQe/I8JQ2WMP+cCIfY6LKmIFwFODdWFGPyqtbiQWVBO/R4T6RHwHeMieP0+A3/UkVathwzSW1Po81y2NuWJiYFsNWryFI9aOignAeEkfSdCEDrudqP2JZBqklkyHAJX/n4tlOK2hXeWD67wAQQnuZIetRAkBqW4J1N6MrWtu0E4mKrUflKFH28yGtpg+8MqTMeomA47jmcS/8NbusBbRrXr5WCkr011BjuU6vNWtVbd+IfWev+Wp8XEJLdeA/4gC+l6DRG5B/cB0YJF9D02iO4H3NxBP1KI8BokOg4O5jhApSBYSaP9xD4ukiNr2YFZxMC/5nc8Zv7rApQg8UvwrsS8buwCQ/+kBu8UVUYhBSOXcYfKaAkoqVUPxReakOz4+zvZzZbXfWiaNDj4EAO4D7g/wM/wvwPVQ5yfGv8O5ymYL2LliWnIjmO9iLq+2FDl3//CBIfjwG8/MgXsQ7WY8BmRWcpMiZGKAfQkDX1J/UpoySf+CjYZ4vMJrWzPmDFQyjfosMI8g24D5I12ttMch6AhCCIkpffYmuUlPRhILrxZsVuzW632QOHJTy/Aj9LOw3i3cnDkKCIcfCPT+zPN+W8BnlEavs5VbiFP74JGp0rY/MT32oF386wBp/eB1UFg1aZhMIjXptOndvtBEXKfFMuXNDMm1O/HHVcTjLmlxC3k9oljIb0h4Y0BG16YdwLqLUFU1bcTkfzD3mr7hrd0yylRXGXX7e9Kox3UjDlu63hWTk0ynsw+43pjTI5Kvo8lnkDtmwFSyLhcg0OauGBfYZrQHL108OqN6l2SacAhv4lIzwJgcBTyRWUp5+jNqFfvpspzueoyQHDQ6lI01w+rCFrLfoHsqSWrwCWLY+3obqApO2MiGlA7H+fPaw7Rrmslk8GsRsrIlcD5Pj8nJZYXDvbZAM728zo5lLRidpeQDAYS0TXeAdWcWr/V40jmekIJWa7XDGP4ctlQNeCgdF9EGBYUVEdz9otj8qxiI1USCSMz4arfE6UmuEqwTMZlaTq8+Nkt5uswLuPUcDuFt4/K0Ua0FWjaT6U4Z6dNpcYN/oIUvkbG8j1Yuz1BDxN1xAXLJsIh4dMjtSmSrFqYOLeMlhHHwTFqsCea1GL9xSlwmALNDqYbNqlLnVLPVQx7WI6uLuV0pxA6YvfuBcma9uGV5d/wUgmkhVgCbMdgzph6B5VYhD18DgXhAyOoMki/A7xhGgQEL19C06mIrlFwPdL3V0EMXTx5pqmacTkgbFtSLIK2VWXUuIGIWd4O6GjJ8+FSzfdUF4WLeMtoM6uFfG7yOYeMlqB3Y1HwT7KPXXQFxjs4eQDYaF8Zyd5HmAaOLc2v4vdIfYirycKBuY/t624W9uJT4ackpEBNq6hVZDI6nIEW/lV+SGp2DHdVWRLWzcI9CThlWXlZrjMzH81UF1K/C+Z4m8gtWtYb4JShfFWyWZUYMr5kWW8cCCBuU6OzawkIysoJG8mGvDoyn42GN2tn6SqlXIa/LVZ6TCya+MgCQrBJtLkYRG6Mec+4dw8VTvWOzSZpYTQgJQuqRblvp3MJZRdzMjJHwKMrZVcsSViDQkdzyqaSi3/TdH5XO09GszLGeBUFmz4uNkDESQo0OtgQB3gPuD/gv9D++iLh53MAqRUUMM4oAGLhiML9E6+GHZhWzicckXA4wm8pJDA4WxkrkNA8BlDK5a4xUxiZSNa6bFRanR4r+qwNry72xVN96oGoF10Qbuv+8gE9qFSKTcfYg8b4IHoX0K7U4rl4es2joYu49twwfr8qtrKTxGkiXPHXyJXXoSwr63skOpWjr70VKmGhZoIIxrL6s4ZYf5mUd/bBlD1ymhUI3i3HlmCyPA+27liDvubi8Qs9IvxVbTLxu9OW8ess9taMdrwS7KUB8lIDJi4RVVRWBzxo4XDzWWN57MoI6bSrsARWiYP62RjBa+BAVZUOIRiPfNeoJCVvOMKXImSye3D46iDLkoonmYuGzkGo+0r0XfX85XpSw3PIJzDOiWUaxB+FsomeEfNARn1I1UAqVjn7BBPMCHZGgAz9wgDlBD3RAypSSXqqVPcNzOLj28KzIWYFdCcg1iKRNcud82+DZ/an0cvK+92AX2An0fYCuAjWzuk4fwUXxTQsc81PeZxyG6qtKCMunaqRJvt26z+vMNDqgBWux5d+kItCq1G2n3vR4v8aQb4DPWrUnenfYvzDLF1GUatFknt3Qp2+NtPeJYtnqYJk4UB9A/KuhkLSGrchN5OnXOJZhmOLTLJzprT7gJFU3FrizaBBa2YgyBww7Drrpb31EhmbFIPdtGgWkQPTNA5TA3I8UTmGuUSMX1Klo85E2yMeAxgiqi2fTjiXpy9tdvSVNUDAL3UYLWUTjpBzhyyEqxVcai1ov++mP5WoovvPzFI14o6z+p0UiIPYs6woxv3itvoPaAZ29rfGcJI705IGpiQmsoZ59sGI4xqoeycC+8WKKEkoWC50v4pMjDv9W5lMBZ3wzvx5nlpZdljoOl+aM6xglhoSTNTpW249uM+Y5Zb8Bm1WoJyn7oEi06UzQZHtIx2jrVYLyBHTcvdxB8kUWvb8Qnwhkm/Yrt8LUKxisq4iyixhUvWPjIJlq2zLTk2hyAYPLFoBOKB57EKg4WpQm2sdHsAgC+A4k8Q37RbCNJdttp7E1dKQEqynn+281m2FlSuurNpPKUpCOguAnfYfgHOQBADQoiB/6c19Y6djMAJfngzyt1h3bdPGqKpvfilvTO1X9YB1nyAyTCpwyXngg0sRdvl8aDkmxM1npfiNlLoEyR+QRnpeF8PSjzbdCCupa0WlIZulQJLFutKaLfy+wazqGDQ7ehVBAcKlW/qFwT7UeaKpSsIUF36DpWC1yJMhyjQ8aBALOA+wPxoHMApBqU5Jl8ATfZfWYXL4vHQyvbPswGSSanrHsm0H4Otgmi7uqc+m00kXUeiOKoaCODsLDKLXAbm8w9invBORrZY71cWDa1ljRsOH3ALOytaY+V5ZAyCmiVOf1hB8oVmPWCeOEAcdyBdlDsSP9bN/S+FaGoBdBTBTJG/HOmRzYzZTSNe9ykU7yTJ8RAME1Go+5+/Mc07oG4gdVNumqpOCSm8qwBzgvs3tJPT0QWhdS0rCdXiCbrabnZsDYfwRCRJxsxWEgI9IR+Zc/TC7yt3ppVkXhudvDAhYGqd6lgfEu05PJfDF3FPRUTkd9SQ1JpVq9oE4saxRi7CEA8RtXY8DDbm6J4wODkhzzWcSORThCRew1CIH6c8Ws5l3h2bYxURJgy21E7EJ+cWpjxbmggG8li/9jzh3AdUo5utW1ki0K1cXZS8RaQF5HaOvHg3uUGe6FOuEBMEMiXKvvHm9GYD7wmYRRLY2LVY39z+jPzb7wjACkvwmqNuZwwa22eYnIH5efNJGW7+MEM6KTLbRiIb24p6f/2N8yGB4Zy7k+IB63EtYMmeApdcNKlCKopSsBKIdRAQXsQBNsPeTFvbMvTWndGz0zLP4Egsy7qxqo9wQ4B+Ls5oJv0+4vm/ntlBq7PKsz9jJ859x6mKvmwUT7RY5Kb5OlgyawxSnNcRYuzQHznqHVt0tgL64GPDf1qszEMC3n5YsFnkwkOuk4yhYfbsSWYBOO5PeM2cg/A1QDDJuVLwztHR2u2Aho4FRnPvRXjUcB17nFRl9tY6UJrmC4bXrib7s119EKlQW/dpUavRy3DAGmhnfkQfDjE9szpSQN6UTMNRh8jPbtDB0aBNtosQfh4X8ZGa06Ahoob82RREhXBWpXf7gJvo/XbruFiQAELJqO8EmPoUmbFbjcKIGSbm9RqrnfG21RVBGrJeHKksQccXgdhSUcqavuirYM1iBUVT4fItU/c7HdkH5ekgfR65/cT7JYasCzpGBay/5cHMFRQ5Ra7O+26ayEFoa497eItQhKu9Vwjfz0YRrlE0V72M+ZHFbqhnEocXVsxhU+Q+jT7H3m1fGFxZPYdqd4o47nGU7G1Bn897POXvPv/mn+lsx1VxEyeknlLJkHIVt2OVoWEF09y8otS1OjOKy8PKPtxhvLccaZJmipFzJb6rbBID4htyqnZMvveGZo2CUt4t7ckGAmlfelAq1J0oN/3V6ivheAZG3Strh78ZPHWWyjaY5cD0H+40DQ6kcDZcxKOjJWl97hYAWO9Ayyhysjy7UejQ8aBAO+A+wNCwZB63JgWN8LfxjNIOPMCwlEnE8RGvtZEy795LtmYC/c/Jln1gflyrrZJ99TT/8Eym9YyE+EJ6E50S+tOcyId/4pqKanGW7Qw+/Hi/hjGQVpsBSDvOqHTiWoKdBO/f/hpUDW+4yFiYU68cn16J3cux/xWbqUfcKRL1ASTLZk3ZWFzAP+nFcBFcfgp//gSnHnO63Y17WPsVSRfc4mO2sJ3J/c/2JiOwsKlFnDAnoo0wRyYp6XLfBHOOwmZSlZi9jgb/jxY4rxdEVoRAc+yr+NTkU8D8ovAQyGLYJhntqtiLrhgFk4WSjSMFbAXM1LvFbb29GUqzB2zBCuTogIjfu4kcahjU2fJz/tubYGrjo+BX2IrQXmkKuS6LBXGzghI2VbUmn2QRtReS0kvFkTX8KlCLIc84gl3T3y7fBb4fQQDg0Oet0YKsC3/yWOVoF7eGCmLfP7PvGtdOus2bOGICVRYUN7Tp8UYaMJJwQwRZhKwKePtyB/C/wC5bOQk3t3/rw2/25HhJtj4NkcRyW8TMQ08L8Why5mF2S4PwZFtw44vMx6ZkDc6uYEoJFWPQnBWD1bwM6qanYjMAZkA5Awz2YHf1whuqF2cY6RCG/1wdIDSG49D2AWaTII0W4daik8lngYNgN62YA83wjNKFsp4qpBJMbagZVwj9yzT3fVbtWVvA886rOeQgdtvU09iAoYeRXUW+4ENXaHy/E805YrlwVnFemnUYc4hLRNiy+FNcg616KTWXP+ymNqwXbDEGv6q3Inr4nKh+vNXK0RJ0+3dsp5dWfgvIhi58IpYit5dPdrm31rkRVIoUwJ/EHUnOyfv+yK4WXWEErxFvPqGTEqgL3dOVBlD/0N06auFVpAYfeOVIICsGI7e3fspjqiiUQ6i98sbysIFfj4p4fpgPrxnzeLVX4xbAwnvqCtc6q0dY77++3lp2Uu2RRQuIfKOfpYn7QIBBtCtUjzqf42q8By/OXC77DK4JQwzNkQI0OZQtEK3DoyjarV1zFTOS77Iup9X29508DNk4h2SvHhEPY8Le2R676us/dveruhEraU8nlaQnVMiOx56Que+sBbKAU1HjdQA2HKfRgLXm86H7LzKkmIlgfwcxEKgxZ8oy9IqfaVY38ogysayqtRwg9Yn9HTlMBWX+DZBRaGREt4nJiA8AaW4oRL1ZF2E0W6/RJnKnH0jiWYXjhQm6ACMF9nJS8iJZPezLhFVuAAqOgAj/na3F2XBp/ted3XuWMa2m1L/zJl02sWRL0ES/VXRzN0FvG0HlwOjQ8aBASyA+wPwM23NozgS+xhzUqMGdjjiT9IGsgyYrfRER+2B34FnDRucbzdXDsTB5ldDmBkKeeArlQkLdt/CYiC50+kwm7WiV8lbme/CbYlHdlnZ7iN+H6/KaFqkI8BzCfxd5TaVuyYYzQqhodXAADkLbcn+Lb2LX9d3YPJmw1gKNhPCaF+VjHG17al7ue/EtWXuadNlj89L6Ing8p5jxBcD7yEoLtyGOA1xd8gRrimoIZ9cDa5yEybSq9UJRL8YEDKs4b90jF5KRFKHC/A1Yk7hT1ekJpZnBxwq8jm1rDxvj5xYwfreA9vxgOOQOmkWR2vvqGRKJ+bWmOmBjOCXNpEdrVZh7pfNrYYUSe58lrHRnrA57ML7YWPz5qSLPZfpfma1j5TBXSY5o9oWAaMrRbXCb9Eva4F97O8L4IZTnF+mhFiYUpkkjkKdXZPCSolIZ8LzB0ApslmLJnZv/wY8tWJkv3rFIQKzXa07QI5M787X8MxJwRRQg43GsO/onpp1ugPtS+59JILJ/RpO+fbiwrzuWyA1hREHHczfrVgW43+eF720uI1wKxH6jB+p7/4t7oZzbYSxXHUYq/MS4oUDG1EFsLtvJzryNgvGU9cTEsNi4Hg0tWx9BrbPA4HFNoS9KFxQNJyCIZJ8KodvpjT2xnpVB0W5cAwLZOIYanJzKol3SV5RSbgH/iyMRmMRIFRecl7JcpETFpfpG1Y+gtYjDlvvA2/AF02BtC1t3qchDATxhTEuhGjJEbpvBy8Pm+N6AwKrDVoLZKFZADPXkEGr1AT2ZenoNllLy9UlQrxTPhCsfzouGhnvYGd2X2hNDcPB+Lxp5UO7Wg1RsrSO5RNlOXLFVc3hJEem8Dl03t8FKhZuJmKZhGo0cXk1jJrhc1ChiT5BkXVfNco+h2EIcubwxKPleDkbndyMMxVcJc2fy5JOeBAqc3xB9FNCchLlqluC/EB3LKZFoQpbGWG3ctatDZWSDmIteDzBaVXR9fUyTkY1Hn6D5Py4heXVt5PO4DnweQbxp2ER8UZMqlQK9WiSMpVLLGKxrxN0ipltGVip3VEWKvmTQYtsdpgUG8qzrbVx5cZ6I7uRtNkUbzJ35I6lypaL+m5I8PoJbqOnarB9BeTpxG1IT5fS69aevbLG1Ur21GrCACTjjvU+ZUKfT889qPNZjcdYYGdtQgNBSSMA+WZ2hRZzpSkMTR1hPBtLvRPX9bFcfP3g1GVEISlJHKwb4kiQ8Ci8VDFkR6i58VaFhvTUlFyqyvRgvEWVIhIdqYXvoLqet+n5ZIujQ8aBAWiA+wPxrZfO3+RxizRZSAOW6QMPJ6S0cHp90a5CwbGWodROqSeXAIvvB2LUV2rheh/pIIOmFc9vADdFGjZCIrCwJQaJl4Uhe4GqzJsoOo37fStslczvvp+5cFIDetzSeAABd+YJXlCBhUMXNQnLW3rJlT1azP51+eEp/qgqOIbOqEgyB9lptsRELA5cT+AZTontT99NOcAKuY5eZI9jK8DSe3FPGDIrte/z+s6i8pa6QuIjgrkfFRfboD2QhakVr9okAAUejbswLS9iqGyWctUOWfxpccg6Bfnlm6v8VnRsr9QCGXPeCWApjIAJHypCZcbtczVroDkhjE3O4fVdw9f3G+t7PFdbylPM9oOZyPjB+xLWUF0ZuPJDYGFeV3/oqBbDIQfiakmKGA7wjq/TETZ6BumWyfhRIiszoAgJHR1UDbhUh/A2kaWpxVMEl2bn8d8+gjOiHbeIaVeuZ8Eaz5Hl8tThAFB4ANOEXp66bsnPlh6P22KPx4Q5MojeSA9Nylawu5Xtshxv+6A2ygkemSsmidhHdEVIkl93GkaSDEriV4TbSX4hCXhj0nw+wrzaY8I1A2UcvvLY6A9KzpMTtiNdDM6v84MofbXMgIXAlar+lGBTtvnGvZvc8y0RsKBsKiQKRrOeKRlK4PsetYoTeoYLWQ2aj2YFMezWIlYT5YnPoWqETFzhX6+Q970cMlnjBQlozSYYSGaSH6U072d4hV99jvw7/GVGgGBA76tcAohtJUcpy7l0KvsnWOwMYsRn7f/qDggq3si/mCs36u4+KZSyryfkb2ZxS0glY9mKdcMp7szPxTCVFnBFZqPuC0i71zCR3OR5nhxJ52/LKb4PR8fgQqSN76Hr/2C3T4JniNawiWKiR4yb9cMQb7VTIaahoYTcOGE48pxYCJNFCVUZ0YGJyo7NmJsFIK6V4KWsSd6F2jXdH2XYzMKElvV0LZRSo44wvr1kSC4eZcC+IWa70XSqkW7FI0FYEiK/sXUHLKv0UZXAvyyCoj3asnvMfcAeGZdwNQ2MsHcsBC7P+29iZPLpob/u/3sWsTRioGATQQ1QUmDWQFLIpW7nRimMOD0oQZ0HokURGsEqszw9nSrUUve7w08VARWM2apdFQ6OCySF+xG9aq7Lb2j8tu4WRryZXN6r2IweQwWVBLysLSC73RpOaVuSN6VMthqjlO1xVwRjrk+lo5NMGmLdiZye0PpOCL5plBGyQc/geVprK8hXnak7ivjRZ0FV6yBpkjNsH2uPJaXuUTwdupnIG+Px0uCseRxG9I2jQ8aBAaOA+wPwMli/pLN9rITW81gYzJO97XsNs4pG5TgsM7P8mxhLgMZkVMyxG36mLsSMkhHRirw8VGr6Ts2veegvKs5W3+/tnxkEuOT4Fm/FK4NYH/b7qv2RqhIFfYp/KcEtudniBF5+Zcr4dyW8jmQprtDS++1iXj6dm8APOFzYZqgrA81L2npA7b1K8bIsyet7rO+XNwjWgfwBKRXaEJl/VKX7K+FGjn0bLdWwQ79iU4ozlbzuC9MCDW8DZ0g+kc3DuSmpLUiz9PKT1CFC3uAgM+acvtMc0lAa0CZQVHN7Ptwbaqw7wdDV8AoytaFRrNu4fd2RzldubGc75OxstxTp5MTaejzpVPE+7PeOuBYoNIkhamh3ZV9b9pebtIn/118ofRl5BAqOnVizn2LGImlLANqhiiTXuLv0LQ2pibU2ZpKXiDC0jfGtl84Wrq1bqf6RFjI2PY2k64vqvhNvAihbfnjZjJwAnA5li4WKEVTrzI+dOX6KBzzW3zZ8om8UFymKqQjnIzDLM22tOlktPogJ3xr/oyB2/EUqnbrx4/WS1ifCPuLGs9yQe5TuFobVZhRHtf2kcKXpx6h+s4VAiWuRLs94YEOZykWn201pm/dZphduUVnKuX4PB7ZfuAbFyw0sWw9QdT/0kx+NGze9lZxczHxxabmrJHlAebY4Ru/nRcSDDW4jPqqBrgFTHxLI2xrOu1zwiawTDJgfnvNLWR5nxX8b9e8Sdg5TAUf397AgyAFL9s99NuBOTdHNmrZkDhF95JjPO1UQJ+rJT5ziGv1EVvNWOrqgFMBxYdlYyeIfWwL/H5X/6yy7xfwGIoLi10DfTCtCLLhqO/ZlYjdTpWLRdUFcsFSN8EwE5HGp3CggcgGKytM0xXhKpXCCbWFHxxjrZeGbGOc9WPZydxmVK9y/QZVZ7MR95Bpy+hn+B/Lg9G04YpBpNpoEtgVkaxzBlks9BZjz/qBQbYPFqEAsxPsLNgiLEV1X3CbUV7FYzdJVGJhHfaCaJBcoDTk9aB+ATCnK/1WU3dpPUqtilPTIggsT9YwlXSMBiqQbQ8fz/CqEci+jmnjACr37xoIjsaEwZM18k1bawsLzGIoPflM32rsN++LdjTnrOyQgUTtbhZ/kVYHqPV+hOcmyJTN837av5lOoM0dw2hdlm+WEwe4j3755Kn47/HUbsWudxIjeZR/rZp5PtHj1ri9feomuymM0i7G/S+8MOrv0fYb/2nQNwJRcFfSowpknkkSWYIf+mfo21bOFEFjBKALOtpAxD0qyrzZj1SJqxJCjQ8aBAd+A+wPwKLJS7vWxtnlKbOuQw8DoU5NR3trlyYSooO6lvt6voaZlW2gJtb05yrXZpvcbmnkeuAZM6mXXap9nswqwlx/wpq65VUyCyoXCSMI9frJU4YjeZSVXTz+46Py4sA2xpID59rp76cipb0fZ8hB8M/DkKlZeXrrJh3fXKOypDdehFTPB9XFCP39JJzNUcReLQXygBhyldip9I4+NB9tRaOQ7AGZhYA5AP0F/k3nCCVco7Ss5IXz/iqkObUo7qRRg7o/ks3yScyOlTludobwoww2fW/+XKd3b0lPBH71UIiKI5qMJ3HAM0pgQ9APDjODfFjuDpw4XQqcPTmz6tV9mqnAsfYATnC/9uDP9jciVEM5l9BX+vYwsxOgq0ZXaUUHGyX7EOzzGxj/n7pKTTdJHGzveH/SEbyi4Fqraa9tsjViUj/AyWP5sAHae45O7bu8RBbzsbSqb0XWMX5HEQiWkDowEX5KB/zTzMPAYXdcSBK1mN9p7o73nrpxp/OAXDo7jsvDWyCzLtEX+Tz8Ffw09rlAR3pN79QzdLd9hxCQbNdkQ1ijb3YJyxJJDnsfzX9EQeO81V3ONXOUSMC2yvfHwbWQ+9/RfOEekst16mRtkiP+WVaMYJ1tPpfcLH6nXGU1a+Am1uIDX5vC7RfKw97G+ei7dWapTzdAqZSUtQvAMRIMBNsvGiL09AdLv8noG5LdURrPc+7NMswb5nS41eh9GqEwmtoT6DFlyAGEM8pn46Tj9kv94tFtB77JX2aqq4mpi5tODotzEEYvXHodtF4PbE+sbubmyF5BjJMlUkgTxfwqzUjH8hNuGB/aEIgTFYdNRHHAHCqZ3RDNYGt6ig2BfsuSW8a27vHYM9mt7ha/zwwENFoF8+JM9Pk1mx6SP4EPS+ZriDNfLwc53ZBIv5xnmofO4QpOjkB7mwSOcbnyBTo8ptdDFLoUAIKozIbn2Fm+sRmzvCU5x7mJqQLJRXZbZH4sYANajI4ZnXkeqBWKRtBFFfKyOp+e907M3NmF8DPbZeWrZJTt+8hLy0tZ0gEkwGYR7oufCPNPJPl+ES4Eh1ZW5Uq2TJN6J6QfjKxEQeFv+qqJ4aGZ2mtQIbzoEghnGEuHd+Lr7TUai/MZ8RLfS36RkGUB/62BehTdDY9FHI0bC71V6Bm2XaUiYQDedTIYnEm2vZZqDyrSX32JdFJwPuLL8psDC9vDVtqRBdhvahynpZu1zRKqho5i/6B7DHM4lvX3ILKchS8TbxVDZoKF4L/zHtWw6oOfYrqd/H3sUjUjiVI+jQ8aBAhyA+wPwN5V16TSyMbW11XbyMeIG7zCAH3L5Mw5nc1vU+Rf7heGBf4NbGFYneNPj6gcfzXNfwVA6422+BPppeT6HZ3MlTMuAkfb5CF41CyNSCGaRKfEDWAveA6F3oAJxz3BBDCEwVgGZYmH5gD/lYgRGbuGdRCR8+/+s5gDjjHudFJAwendzQyoatI3uXahjpK3X5MYbcfW0xWQYfWuzGKBUfqg1NHHfNo0E1PVR6309QveJGddrgQ0hIS+uzrAgLL8+MDxUoRg+PM3CHUjmLqUvTB0GLAvxxwmSN6f2J8+USZcxO3Yd19oytiwCDQnD9vUbbfYxx2VLwrEPBS00tbusajovAcPxrr/XpjPnYHGfsdhxpuLSYW5eCORU7WyJ+vDoqvyLPU+FwReEbEDW6Uw5AdMlSbCITEsnFa1xFBHxnqIEkvAhglobV/bvx1QJPnhSe4FsU73BJr8NxNcxiEfJ1exOUcvKIVTAeTAMhDbFmJnz+LBay50bYVdkNvMqfXjip29EUeCY0f3iCMJTpaorg+Stj98nd9jrqpcoreXIrLUQk0T/8twlH04Bk+Mz+TlRtzYhJa7dFAL3Z1FN0xeZ4NhQo2yy1fJf3JCGrL30C3XZXePho27meGHGnjR18vJJkVMDQrknMDJg77vBEDPalB2sWnQmSqbF33WnQY7BFSYRt8vapmTF/Uhcf5vw4sTEg0PJjmzy+chDdih9S8lPRavZXCCklzWDXb7Oo4Q22827zHT/R5Pg3Bty1zip9m83M1XlYp8yfGlk0vWk7BLgvFwlL/7RKHjte9sS9M2FH1ac89xR4KS9Z8Iv1lx6v9DCKB2UZUotxefG71+8XLzQAYSU8D1UgxW5CC99lDRpJBf0Ate21ENS/AJT30OiOSHv6rFwBz0ZjCGtvbYOdsqRT82NhrLMoO1lNTCKYF03KIbJP+7+hd7jOJXlUcGtzP2QazjvIeLvDyChbZun9UJStO8ZQIKp1wnLt4wUlaiXOhpwMot8+HIN9DZiKKAVlKk3ti4hGk6JVEvklac9d6MZS7JJFps8+HDtxqucSzjy8x7DdTaGA1CkfYEB3cx7RLTEZ7q3RsJILmuK0em3XmsKBSg7UOzP6tnQuFkJu93U8/rw0VKJCHrej8OD2XZT9EDamS7tvARsWYfBT4BzEp3DLQwIe9MPbUQ714Nl8sScAVU8dMCTlMewTNytHEre9QNUOfyi6B3szCDlxMtRMrvnKqkwVfbIg6mppGlBYlvz3cP12UbFQFLR15DKfD2BFiXCVJKjQ8aBAleA+wPwS5SbUc+e5f7qQ93B23l5HURn35mulDT9nIiW7uji3kCP1KI/HrGaA1soDwBwgkjBhq8XILmvmNl1efyUuouFsxiTW9DDHvYMw4V49joPGi+B1DxJj7bR7zyhgVxbYl5Vv3pfkxvE4R1+jHNhPeFJ8b3qR2wOeVwygjXU+AKBYiW/upQZ6bdtwUm0RQdfo4+MjWF8cm6FyYclGsBs0X8D7XW3gqNN294mGGVk6x2fzF2oNG8ffCy0it6IRBQQAWdRPbMw6q7pVHlRjleqzy40S4cWkhl+73l0CAZhGk7AoONfpnOGwO+AJ1FtnhziC1fjwf/kA4s8z3DiO9Htcm/8SVT1qcjAG/yGGlTHPHdahTy+Q5jxcIpDm1H4KZIEDRMWF9BUJnr/BNbvZ4xlWYKolJQCNIpzV3XjWcC9YLrUjvGpXZLost7lprMAI9YELtBDmxhUE1QicCr3JBe2afkcIUzD3w9g91hEnTyRIyjEQwHBH3ihLmIN7LT3QCA2ruSmNg/QeeDukJjTFT7/N9AajRWR18zD8zmukbXPz0GH0HgpElrBJqHY0D6twxteEJEg2bjq5TeE24K1o4IzogugglKTMg4W1g1eOelntGTznVEsaa8+ZNedlHM9yZpRjBgULCWWA3SGdSqU14VXDRqxvFcXBuen+cl0WAnQ8gDhdFfM6telFHFtAGWWrB0Hh7CYIzLv3jYzUDleIv5v6CLCLgwrxYaiv91hvklZE1hfP4OVcERAdrJItB3SQYJ1SMuKDCbNMt4NtbwVNCKnhZig8/QXZkCJ2tL295zgTeruw6eoZGYeWYf9npJVPpY1GShNY8MfzsBaHRVDHIsWgCSV8DI/mMbHc43czXmEpADO6524LqXJ2VsfwJxEvQWKmFHBQTByJrFaNXVIkC7udJDVwY+toSnNHj95zKhPl/RVbFw39+GMYSoV795O1WfabYYXl5p0mpmlgA74NPHCbBIi4GVmhEdrlhtxeNaiABlOXZKPH6blgMDyLHPFEczfMKGehz5PZlXbJRE283Z53RSa1I9zNgjNs/oFXr5b9IfmG1veZx8hvV0qlwbaJ05FgqB4M5Cl3+7VzFXt0Iik50R5gAxutd85aWX5PV+V3qWXfaqM7dJMkrLFAt22MExX80jnz5DjI+xTNh+G2TzIG1BNE3sDCDDnqaCl6yCRdp/aRLqV0UKjWQITCuPdkmo7p7kvM8tb2YBACIXiO2W4ML44/Ey1SMR7m78xLgyII5qkyvKmasEjk9gwrGzMnJepVI2jQ8aBApOA+wPvoRKGJQDgno8qjk0X3nVCQtHWMs4zV4iHLzuT/IDn0mfRDmlfvcqUqINDrE7i6LjhdDOi7tNwMk1xmmzZz9NrStBEcua68a9OT62PoxlmRUMS8dVIaLOJflGJWC5BVpNo62cMBBzWIWXAsdwQ28u0D4pzKDG3b5WT40ZM3TX3miIlYK5AULg8DNXR7256Ah1f6CLGbairKiX9WsX4IIW1nQnDxp0Q9goF0QAZXsyTaWXfTaYwl3bqwchRxoBiQlxqXzBTXMkvLQwBIq5rPMshJ8XOvdRl60AyqipCYrSlhK7PFo8u7EUqSLD1cFqXj/nWi6pGDySp14j+Rv2/+Ps/eqdWK5oCMXDXZqtI6maXcjRCNABiDJYmdkFSjiKKoB2dXAK3RQnOBDGNIa4/mWglosMsNBGJh7uAdb/w5ifEifGqp0qcZQCctXjZ1H2/LzkxUFdCf9uk/LTmmFJnWXSm4Sw0UQHoCN8hRzPnF26Xo3XmK5OQQtCbF80pxTjF77jmZQJtulhp+tgbBXXxehuNvbOk4D2+0tiI8uilnG8NkoNjAkkS9C5Y7Jnt/jnxw9PhD+OgsjK3Y+AEqwPIJSfGpdiKrUwRjqFrt/SDwa05GxXwUUMfNvO0bGE5wqMdDgZShtP00dYxMRMONnvukZTGJ/SWp2OTThmXxYNjmbxBJvxtD4n7bjt6BDTswdw4MmuMZsPhr1rje9sCEw5QkIepf8QbhEFZ2wfIj+2W+h6QMzoz1VEGoEmJYgl6eeOEeNMnBtK3wokGbIZav+2B4jsKFfSllx+6LYIp9fXT6F6i9Ay7ozSAQjbSJvg8WKwV6tebXdr1GOdAhRnMcMAAxeSQ8DHwRTkcOE0EmdBjVEGLoRs5JzSOmx8rtuGJv+lhJzYhUPpeGbiJGvQ2g9fPWS1HBQYOuKeQ2AgD0Mcw+RPxKHy0vMlFWeoOQPurDPJqBhSphJR4cTn2zNsyhA0Fayx7IkupITt8St02n4xE+nLgElx0e2FqvQIVhqciimNPpQSE0X+xYyrb3565YjtY/TiTD6X4OYx+Yh+LpZfG6FsSAyynbFaHfZaI2s5Dixuka6ZQO8KGtWBqIqtmwjRQ4QrCrMwYDHxGf93IW8Lc9s1N2hbvjgBZzXZUQQK/FFpdJyPIecdFgoF7QYjhtzXyH/IcgiZAHVhaDdhWZfU2bOmm3DLD5trASC2q0So+y1SyOwFux/dFYNugBrnGZbpGapXYjSIzWyA1juEyMOrSuWd7ndPXyA4NC6xQ/XoWUe2M9JqjQ8aBAs+A+wPsU0n0o+9V4wLdpIny9wA/tXStW1ic5xfdmvOTms4jN49M4oY/pymmHxlipONysYVY6XU7rApyPqZRXBtAjnf6cUC4A4hXNNYP3kpsWxFtHSQ0ozDOng8vd3teFDUzgIYzsC+Cc8WkLdslM/HZKc1stFKqY5vVx+UaBdJQ+0niruvnstIrfzrVwZJrbE5IsjLV27GGZjs2LW9ILEGpsHxMCwlHo7DKanosur8dDVeQTA/gY1e3QdmvV1hUsbdHZO43UjKzVGeOz9V2B7hmUCXMMLxQ5ZG298j0XZqaN1Z8hmxkJQPeXnNuSDUP2Qxrx3CIjEMiIAGwYliRCY4FkAUISYuwZRtOPH1kceaPMRL2vai/TANCqovys+7pboIMlAVdbwBadxYhNooDVOyIxaS1oBuGSXBJygPqHQGsJE4UjvGO7QZjCGUKP5tAE/dt05+F4dhpuKCWKdi9myCkDo6cXzOHXqddOWjn2LNUUJUQCpO38TcbAqSQYY1LCN4M39mzfMge0YbayNCKZWqpnM9PgD7L2EfSrB4xkycskDBJ/HON7vLEVWfvubcD5LMJ+gswzlhLP+hY6/U6rrorAS/4QeXlI03C293Er//1WEYUtSq3NYWy4drYHWAkCKy4cFoiQJF2aDLGtURJWV2KYiiqTX3t3LxDTtud9re+sunm63nivXsI5SkNiuPl7xaEvVbFrtY9yKDRg99SiTUr6f4LSj56LHvVfDUa6mcnhmieRyMvTu9QwqF2f+gOQ2adRA2R2Iuc7H9U6vZigWMEq48AqT2sk9COg3TUoWrOpJaJ4OYfINziftjxk0NdK0p1WLjw+7HfE3gXa35oHMD/51SN8DHizKZMuw6ZwbwoXbNpIeRlJBS+Om6e+D+L+7ItBkQnJoHZU3nUfqZ5hxythqOh0tcObbpC5DutY4VWPnap8j5jtib3gc1AaDX65NL+0JJofbjOXjRMqoT/K4mFLRmgbKhLCgSAXcb2nM0U/futbPx5pmPHHoX5M1snG2c7jjL/90Fx4CXPT+Q2SYqYmw6rYkWKu8n4/hlwZkIKhsfWaNVPIg2uburGP3kd3DbbOgLMx9LSKgMaQ0Ek5cNyaSc1exRbHnRZSrkREDt4wCJD/ieP8QwRz7ouS7bw1qqV2jKbQvdaRqqgg9Vtrx/mXeflkSJMqxa0d0mKDQnQCx+yCXNxVudA4S0YZRymrgHBV48YJG1TD5xso22Vpke8kGo+mc6+U9gkpqkHTOZ3oG9X1+SygedsU+oH3P+2rrSLVJGjQ8aBAwuA+wPwOUoGbNzhFIAwGwPBPDUqe2LU/v0Cv5GycOEKCESX40CJCaZVu6xdRVBIbgr6qFn9EI7ec0oLPrIS5m87GDhM0Ch6NRaTDjBPBBRqmeQbPyRQuhTSk1gx10JYmGt5n4ZDhiqQmUkh3iPl2EfgS6Z6QSgqCufCBU+dVn88Wk8meyfR9uD2pxI6dm20+vIeSb200/Up5FRQ1hZoB7RTSGNExhgpdf/dM2Q+welczt3ad9686VGwrMWNbrJxy+oMwLxHHfbMN2sZ6g7em5xXD7XFs1YC3hBET1rUfIaM9u8Ln72BYvObP3XjAoXMHxB/mjQ+PFNlNp6X1sdzaqVm0wfq0CqJuRuuojV6C1oOg5CIvI4Fh/pDHoSQd6LNI+db93E5C10O2mTrfXd3rrxj/PxFGkuBK/I7o0864WzXAvBkk/A5n7FbpPzOW+WpUiiePDA28FSvRWSFyCpCZipAxHRdfXopDU/+9juK46oVYSpxwn1CTSw+71rq7gdLM5uBHc0JoHcgAZp8GU1xo6ooQo9xddEUo992k0qdcS+5hzpr5veQRrWI9+Ienus5v68nyA8SKo3V1LEZt5Xi25ev1J0/xn5OHPzRx2koOgjgrK0+qOydDsJTnPqGiNNllGU40HVDQPa/WGpD/txldKJzaawDun6hjf3BdCRNPKdvqo4PJJ8BbjgchbYA7UYYxyajr5Z6a5MqrlqNtpGH+raOWq+KFDiYBbw1GmyIqq/cPRXkpEdAM7h/sE0MVDcjozAfcg+4uV6bc8iwgxia7NwExwI4gqlIjSly4CW6StPEbGBAeG+Ra0Ocu6KenFQM7bMb70uvNTi94OwFdcu1L6bSQSSN8aqdVFe85r/LsIjrjLgW++SY04HZW3l8Apjkfo6MQu8/Uhkn+jj9LlilXz9wlVskSv6HiM7KNtvkUan+gBby73t0GDx7bMDjjXE/ZDYuuPvH4Tj3uubDOk/RR/dYEK2EDw2r9u64CTg/BTvbzpgzRQrMC22V+nUYXla0iA7Wyn4iirv5XHy2wbgyzDU1Pkoi3f8WVy0WbQVW5SA+FwYVCzwd9hsTMkTrwgcZ7eU/iyuWyWua+62MzfiX7TsIOOgxRnBSu4AyZ2+EzqRnPbz8/GUKrRB4HSLZoDzoDmMh86oPkKJrLgsmBxQwtZDY1N1AuAkB0tee253MMBBx/RJ6TKKUQ6TiNQAhslwCmQTYC7i2oCvU3E9GEuddip+ymcTHDNxSxnjpwd8Jm3o22/i8J+uxSkyl5q9DaxxPrWc0ZIGjQ8aBA0eA+wPxli+chZgnR7Vm6vdHjiGZVD44DfYQVVpwhf+ButwOTFjD8hIR1pCOIE9o10Cd4uqfAF2LXu8HIOa8dUN/z2E1daEpvrvvWhmMfDJOwuy7lP7QsRJ1hE3+hzCKphhXKK/2V1ou0YCX49xaI7xHZ5CGTL2GuouShtXKbRcyDVNGGLIJ76q1qdU6/gYYObpv4ucDMFCKoYinutQg0Suhtk70T7OqFNk3yO8LyOiP59HdsixTXv5rxwQ+eZO/uGLMr6GYbfYhsX5iuwCR/cQ4+GDgqcEZpT/KNvkwfTRy0rfSkViRAR+b2jb2ESTOiiojT4LDwjbPHnAyosJ3jpZmOsn/c04RVZOhcmL7lwg7u1BE14SSpSZPwVQXrC0nG6TWh1gKqaPpkT1qwBsTnlQjEygqBUxjCF9fjexh0GOhY370kkJ+YArzfJNzO/pWLQBTFSuzABVTp195MgWqXKHVOnNb+cTHkruVG6rRWuLFs4ELyrsB9GpzzFzaCTZ0kbbHyhpf+Allk8zTiDfg/cPTqLK6Yaz2SYIzckWwtOnAlkYZtge4jVrXqizPq/MH55vl2Dm52ugDvMsgbG+bA2x+c4WIgO4K8+lcIZ/VsmLfzWAWFlMNHm+TpwmtRSOMLmKGkBu6WPp59cJfEkdnWlw/ZY95YItEj+wcvgFATgGlbABc2UOJie+UMDMHKeTXyhDcl8xeTAtg83SUCY9sIeiLJhbjqb8+cp8053pCvbj19gNCIAlRRyuCYGmbSs4DVTCeLDjS5nCy7ZsQgc4s8br9FBTbikOgXgKb328SQ1HnvHmaW5sXrBxeJS8TzWNyoh5+5DpU9gvt1TcjdXl9BXvBVTZf8DpeZ8HvH8gOawiu6SE/LumjwlDNEc//OC0inw80kYj25odD9s4AssIgaK5gpoDTTOncyX1uQbk5MuObBWvKB/kujEVCoVkUWe9+8KblG04OhQksn0wjH6f+do2OwISkZa7KlcUfA+JzsNlKaGJZG8x0O5zWRhKY5wHJmsjvzWAVIcUj0wAN5NIyE6SQyVoq2Hjg6dUUwkN6kFTtfDX8mKHQJqZW0Y9v0nX3rqIe927E9t4Ctur6NLJgwX4FxHzQFWGfRdbOBiIqtRjQZf2ewMNLfpzw6jwJABs0YeLDzqm1ZcQf/ctl2z+p8FNaPWsDKRG1Mr/CrDtiVZsev2qqaRuM91Mx9GdXfloxA8kxZnXc3ejbXl2Z9hgDk/L0h40Kizh4vKUn6Kt3D1P4J99Q0X/51ZfX91lEOPEueSKQpI+jQ8aBA4OA+wPxqVNRRwtlKJcfC+zL/O2/ybKCDfx99I5A5ENouycCZJDTJIBPKiyRo8WblSpH7w1NOQXWIIhbDQLFxRpDVG7cap9ElPKa2R7PWHzhb7f3qzDcZYiqjxDcWOMGhhF3UM4ZpQyzIlyuLNwkdKA84s8bKgqIMzhaYgCLo44slaVh2+IlgQpSh3wcM2cT9W+bOaWqcJgFebLRzQ7wxe/uYQu0QlkCyISB4Gk9fzF/EmKPczxkcAhi9d7pY/xcHcwnrNWI/2AKdbrtvijXo+lIHY8WX2NyGu6Z+LZHCN7pAGB6+d0yPnf+YZFxb6fvCtFmnSGYZlIOjMt72QmbdUURkqcpS61rDRKLZ3Eh/NLl19TgG/lKwmk27aNLa2ZuZpqrYK3/XYBWEN6EAs0zyQXHYEO4Snr7NFkvNTSnfY9lAICkke+Z96IeuVy33wIlsxV2z/emVyIcU6kAqYdQQRDTlBQQ1M60kkzD1DjUg0nD7C2+9efsfg33zJlhBfM0plH0/fb1LbZb2cLLe1hfxXiu1AQo++vM7yy/hksvAC8l4GuBI8hCN7FIiKE4wsiQYXr5NkTU0jM0SmF5raNEjFq9n1Zs0W5FrhdDptwyUIEo4Revf//5dIXGpEk+BfTlNl1TE9Z3s1DD/zgn+Hvyy0IgZQcMmz3BL1377lyyJSBBWQnCdgq6zj1zd3vkgYguor7C3F6kZMy7WkiRIz3DlGfdnKFS0L3WIC4uL77y57TOw8qTFGvB3rmhgTnSS8mDMUjZQL2h/5YJnYhUf4iWyQUAL4mNvRB+xr5aF+p9nRP2ku4o2pzQcnAqxXQHFu2QzXPPw4onUMeCtfnSYZsQ7/B7i2SS8EvBEiwNFMrgmJ0gs3X0P6pRe9wsy03ME++6d3RP4i98RngN54U3Mm8ETEfs5mCbibv7MagD7xCyhfKIwhK+8G5iQFzlQLs50DlrYxvrQbWCJkL21aFR85F7TeG3iPYR3mIQpfGr+TmwLozLLScaYZvaqYV/un3kto+WTFHFoc7AB7m1OLh38P477Jz6n9BtaKzU1rWcF0ME9E0j2OuyC9UC4/0MHTA/rCqN+CJ8gBxNiTbyVzNl9m0fP1fSFz5voH6QVfQ9F+ynsXm4v3kAq3pJA5SKCR24Z95oyb6uo6G/oKDFlKicLqmsgTbGW/Km2g/T7WhbB8W7/PuwpiUcUNXaXYIwCAlDJDLDX3TQn4/+86srCgAVWFGRLJE0Vhgb5oLhBDc3qXu+4LD/G8vRs/4gvXHId9y3weo5ZHozlIyjQ8aBA7+A+wPwMkV3Q+aPesmDSLrTajIbUcIb7JHNvEYRdoEXKKpgVrHDsulXJMPP16FGh7+Tr5FZZHyfn+oVaQkZNFszH8Myqp0jRdqmILIcS8XTV2Ov2qUaI4nncuJrG5ENx7pHMXXHNJdtb86Wxd1Q8XUwt49gJABtxbkv6fimOrj4/kbjqTSHmdTzeLuLxS3MvCUz6ch91dSMNI/NLbbzn8NXJ+OAXGpQsJDoRYBE9XGJmyCwna8DwY4I9TWli1DSB6BZ6lQ+OUaPtBpSM6pDU8IlXU3u0BcMV59lGV/15fVENn8EgTcIa2xxwFU9ZH6WGQmVYq+Eq02B/CK5307zx5yCF6A0nztYZLW5NWHoyKLO2pVlm0isPDVGsdfrKoPCXkbxY8Vs548yybFBnXMgy36LIdEwVc02ywNT0/ZOw4Y6QyCkiuxh/cMyZVh4DwJv2BKcwOupQuTsipGiQ9JEbNRgcEARTz5EHJlqhjvBqcDnTek3Cu+AlxQx4IczBYRwrap0f+vxiF4xc7klc3MhIU7QBg1QXfFGkfi/5eLJOymmyjhBvCkL+ENQfNUpb0Y2wHxhhwRHN44M17iTUcRY2roufoove4DunYDtoSaPv2h5K2eVzwVmt/KXHg3GqkNZvETVbrVw+KWJuX5CuB0wZnsa4+LjExlyZJspzdA1FrYynSJbVx8GhqJ5ZvB1d3eoqTPd1DR+PHndbHcslv+Ms06WJOesWwNHhADGyZe5WmfyXilosyrIjKB7a6V9MYfK9xak9S+AN5H5/9bVRV+1uNn1Ufg+K30L43MDlCvAm/zLmKARAm7S7sqAcML9FLoH6WFwWmb4MRAdxwuuQVGxYXE0caSO8DS4xQEzopidOCd8SFIxNkVHK7h6KbuGlZUJZxKvP2yk8slGiXX8sA2c/u/T4XvFftZQA7OO1lxWk6a8UvKcr7115lW0TV1asyFrNVgQwBm2YJLIaRt7fkkKtTY1Ai+FOn+EAqaa7kQiTHZU8zc4aTMKBW3OGkMMMIWjoIQe3IEhx7218kpfS8K7Mfd6NC2rP2pzgQmqhjwYRuEyx51ED0pqI83Vm8tWA62pR1H/7QTMeNnxst5WqqaSZ8+HtgNrAVgWMCJdOUBjkyzzUscLycTOtZ2AVVpp6QhRACu+66lYEyGmiVxrrw2TIZMadOJLAbEcQd7zw5Df/q08m9fOGLv1HF2RXwOXe0SFLwQ5oA/BusWuVs5/JTIPB1cR6/wZ2wFE0VhamfcZ6k4/pm1a39YomfJd++uP4+b1AnxYlIqjQ8aBA/uA+wNCnLJO7f/o75+Lyh+aK+VbnE6KRk0dB1hnbAwvGYrSkutFBiyDDX8HxZx91zMcrtzBXxL44A1ZithR3miRn7Q7tKa4WZUrNpp/z6KxietNCVM7ZO33OWFKKh031iHynzTmC0D/pdTtnenjxTW6/LoWGrkY9DKO6HfWrEqQ8BFbQIzHlvIBI7sol2stJZuhUlYI/zTkNM/pDe9gM+Cd4cqzNRDuX1q6BlaGbCDAKrA6VIy46+Vss9qqiCowupdgRUR1R2DHsVZ9GQeIXdh1F/MJ3XwaXgFaTGojflD6d2gkDjkrHOjtV2+BuHvudhP98ZGLiUR+EZoulwadROV/vDD7OG9KTbTbaWhFZ9Q7XEZHTjB8oxcgQ5FwkFg7EiAnloDepm28rL1ZDljBeeJ7nmJDVtlt44pCL4FQlfk4PI9UdRNM6skOpa3zCPk5WDvYmZYGbNXrZbVdcdJNbHVzegH+QS8IFcqk8EiMcyrjzcCwWP3zw0iEw/xeccUEQXcI5F6lkQ3tDJBTl4WGM70mOC8HBlxfxW24LZSTXgkO9PGef/l0MypQQZC4Yv2JpHDJDAq0Ib559+0aDLPw+PE2j4U6WTqkHIE+ST4bTOkE2qP+0a3dYiWTE1vJLX7R9zqNW6CFt58YAyci+hFIddG9caN9BWDX53zQ4cCXuqhIzBmHE0vD4kFt3iWAaTlqZ3b/ccx/v3uxVmO43xgvqPg993yXOMVEb7dz78eRSgtR8iQP+uULrEMf5kmEJH1qmS3CHQ6JoPVS+ysBGi95a1c2GZnP7y6wZxv0sY97pmy22vvqh5E5PcDRYPOeBXw8rghz1b4GtNNg898wuyZRqbDiWL5l76ICI5IgSztik6Gt4K5PBkvz+z1A+Jj2Dtdd78Ph9vnW8XkrZRDpoi9P28zR6ykm7uqE2rn+Bl1NU7EDdpxS/oGgYjuXhN9Hdzg5/+vjgSmsq3VOhyAMHZygmbjqzHSer/mxL/vS7vITTh+hg+d34+ZBqwjnsJ8DDPK1a/ZOdK46G+eujCI8FtyspzbNWdxD1xUA1X8WMC7QvyiNnKFVLX7ro6P2UMnnPt9nEL9JaODc6kUwLk6KVQpl4wqkPGflHma/0pj37+vxDu9Ju2LOdVtv+W7Ro5QREhFZR7hfGr8ABeDHX9FMzZoj/7Y/eGnTobSryowNuC5MXC5qf0O6Mve69wM0vIqii2lr2SqXAz/E4gWCxtDS+/78KKOAc4rID2GooETK5dCM75MsEnZYpxok+S4ba8VPvjyRAW5PtIejQ8aBBDeA+wPxmQwSw+ZpOehLKcgC1Bm2srUuH3mbfgSbR14QpU7lH0KP+E5niSQzV9RwZOY8l/z6BzVqXMm7uMRlc2MrgqvAYtMUSh+EIgNeNhXRCCIw2mN7NPjNnFvq9TytiGu8784EXUm1BcaUTGTMTt61zmeBpKmotmC43szH9svUJ+bklNbr3AhSs+Xp8cNbXzoyvVYQvKf4OSEvHctQ+wtnoa2hgoApudiIfdXA5K7iiP+LilDWpGOdRE+9HWJ4rJ9V2b1ZSiCNM1wITkGfZNtzNIdfKfb7BBVN2qil3kOVJcq0SC6X2TNl83DfQGtt1j+VQtFvTijs5iyb+mBAvmm930o6fu4MZpu3D948MWSl6wNFdHq6vBpg8svOaQx1xRMBwvi7fpF9SZtGwdlmn6UfrzLNSzzz66WTC6p6ugUCFW9kjfA5G/485TEbfAUvB7skvw7/3WO0RFiD4QtUtBPGjIE0L+U+fTfivDK530x/CBMdGA7ZL/G5Fn8Ro/chWZq1swx56KWnQEVxbqmPBYumLuexHnCIGWskn4ReNcTbgjGzzu0ANwhDVHYYRbObzJlIHHX1AqlhPKAOMhXl7tmhGbWUs5QKJpvVkAZZXh+Mnpt6W1E/Zy5dfiHTwvhdyto4Ko+PHlHRDQoGLpakHdf/cVlWEt8bGAfdbaCE4RwnjSDdNRz47NqbJin4Khroj4hp6ZZG2tPODJP2umv2TjQ2fNGwsHcar3075DkCfkWxx0ZYClc3Rc1XuY3yahJaEObNcoxzBj9EsUSing4UvkknjHQJeLQgeDru4lY6qT+bk5VM6sY6yNHC6YsVyFyetxvyv4Z8iJVQKg+SX74zUrKVkjSN8DNCzvufKLv89okUOAV2AVAbSq4KSwK2wAVcgsjF3iNHgHzEG3Cu4eRzPkRrXNzR7cofZvnwK71pGW5JyN+nbw90MDUbXZkOg2eQkO8KdfB1R8TsUHxJAqTo0Yc8zkwxcZbmQwMaKnuMJN5ez+3ZDmLkidlqt44pwxxn/8dGVnTRdp3dgV8Gr/4L8Q/cc0KCWizWMYeFXcVH469AXEcqFrCs5wavomC+s0zoBFb7vB9zfBOzhM19ltHUDH3qeq9omZ5bVRWT8uf9GG+FM2acZN2ZhS/p7fmcTG/lnj9qylNqYOPDOd74iZgwDuijUFGpzyhBwtsyIj4M0qx13+GYTdTCZqiIDY0G7YXchOOfZpVIHWg0bLgUgAwbrxt9dIpj9tRxaN2J2xF8h4jnz64mLNRPkRTieT2V4TQYBdroxImjQ8aBBHOA+wPwOVuSL2UVt04qC/IvYpvWN1LZXO9/2itLg2HSFuUhkiroiVMhQj0/KmJBQCvOloMzvPpywgVfWRsEevB5YbaCcpQJbeOCTBRD5B6Gde2CqtWihnUTU4ccYyr9EONQAfnAMp8St0DOBCrijfen6q3y44lRYv1/2xMLBDVuEGac37pDv0eUnDAa8oMDqRm0Rrp3fElDhXOzlbRyk9SLEHGqD5IMtk0OmUHpda5a8ZrxcUNiL1F1ZEB9MGNWtGeoH0GS51wGMuMCEKp/vaUNDCUkoOn2ZJhIdjyR3nT7uio073M7ApkqacpKTGKmv33ZcieIFpPNerWMqqGgWR/RNZ54aWnLx0b8Xulfcx468keoWCcYoyJ+FB9VJwrksRfBN+5UuMdRZTYOW60Bk/i9EyWD7TGd8y8XZ77UCESghqmkjeyhlaBjRPew5MelLa/CBpQa4j8E+/QOR1qYfYlC5+hanwUurHHrGTDVBA8sKOmccqBfAqcy3nwf4jy+9TGa0OwuWTAf1Ll+VPSWFDlJqQf9wvhX+pwzFGW5Kvcei0d5VpAjmmQoGiIIC6XbserCaFTO5gsI+0ofd3Z/ZZe6Hf/EV0gYNblZmKlUxnb61+AfJwz/8Ic/CamZtM1DywwPZjgNSmBT1BxS/fGqQk0xnQXL6lYjbvk2ScwOXZZK0EUeRVsUGFzaXc+54ZHJgcMMLVhwgrH0ZuXjentw7B3VwwrQTxIZ3jzlLJxM56PVNh3CnpzLiIZjqgNOy+nvk3Uec7w4/+GOMYuaAguO0p045KqC6a1EfHvCox6fkLcsF+kFZvh5p7EG+MK3AUsSZ9/9/B9GY1/gf6ml/1qjN4+6mlSJ8DH9T00r9vds+LYL/OdCalQpuhDNbpy4ODX34zx0zdi1paqx8CH1bSZqrSkjOqFtFVZ4Ov8cbJI9usZqiXAikd+KXeYxQ02zNxBI5YbAb1G27IFzVRnIdIGgWgYBHqzfMqmytA5y7gpcMZIL/LjrZfPL3aGsyctTZpTDPIxGWE7I7F2zRguVrD5SHTBC5QxNSY7wCvOcJ4OgcZ90JewFEO6WHjd+CUo0/dUcpk4Kpm3++5WUvnABdoLvYh2ovCpVRUvVpiyU2iL2SiyDffVkbCaz0ToY6yWmkfvkEYswRK5O6tAL37UyvcwdDwCL2wAKMWQc6TLcTBrrNXhEMv1Y5Y3DD1GV/14Gzr4wRBeAe6KQoWKwntERnx+cvhNX2BJP/4omuZWaJ+RE9/y7/c2ODkUjJ8t8ycdRQWnhz2EstJCjQ8aBBK+A+wPwNf8VlXw+rVxAsFR5bh6dOkpcIC6jC6f/0ldmKuahHQapwtdnWsJklVt1SDXD8fQMjw/JO42zQmUI9FDwpJPsRYwFK8gdjhr5OYpbbuR/PeS+wOZ4uvVpqeClMRpsLGK/RAdmRHT4XAV5TEYylaAzlkum7/zK+cW5WybMVfwpmHX8YLDOf2ZQs1VxJKxwruq75ymjhYA57n+7ctwxDU9hkHJjeSxGQ41MBX7wIVkTHyQVuhu0Z/f0HHqH9pIqyq1GV6Cg6L/BdMapzKKu7QfH1DpXD2sBCN0+NzOAlTxfLC6QsUtM+Kaghwg1oFS+kfs0vN5sFWaMq3Y+gYjQmer988acWMQNaNQrreEwCMX8Y+LxmxC9A80dT9JKcOsZ5z/0deu5f6cHOC3JRuxpa5EpSkufHmYJzflbVvsrqDSkjUHkArapTArkx6Lc7Pbx7kBKSxswcLRN6Z52CegKyXT7XDhDu0UdJnut9xUFnrEs6JQD8uo/FrBhmID/7Uvx+3ZS6LJhhMdETac7ThZXa3kkui7pC20DF0feNw2sf/SntrMRAmf37wS5l2XdiRwO057TaMSBRWu+leU/p5ukrR4+EQRgx+dmAYmQs5a7Sqd/gGxzVwA8Gk7aoQ8j2/niriQpIuX/iEhNI3fw/ODrWx9onIMi5jMpyMfyoiVvR1nHtb8e0/vZS3GrW/enUvxgyiv/X83kgEcXSq+Xp05Uiomy6aWuNB69eZhnyZ5fNQXfzLvwQ3UUMZctI99Q3QZ8hBWTa3tO2jxgxcgI9Em0DZXndk5J0K6q3wHA84m2Q7yHJ4VUqlWH4me3PCkDVaDGO4Ay+PymupcJNQJyfG++cgxaQ571EYn9qOA+mA/5OaPXkOndl6ppLfOaXCC8M88Ant0d8/qCdXjcguOYoak5ooSEuPfJJVyr77Ow/9dCtvEoyDQD5YDUkYVKC3Z8gMi+B0rPuX3qDhxGHGm8FvSyQ5L4W+SXlsQeP1sYvJ0RHfTlsU1uwX/7Ocmf8e7qiR/LY0K0KOFjF3imzNbqUqph2pER7UHxpfq3B7Raus6JG3tXmGiQDbp6YzS0CnfFSr/kCskkSqYddUhZHV3amB9P97PlAdTWyUSy5bwRldhK4LRYiVmiZciPNrBmXs1PT6EZbe9+5nOHmKsAej8ClmdahsW8smG+8UoQ1kGWU8x6B8PFRoI+rPNsabHqnrJDaLjhTUpUOP/Xb/Mej70jnphMDpsL4dEuEbyBC/YmXgW6IF2dMc/keQISgUrs7sPB3Mc/ck2jQ8aBBOuA+wPxmKBNbMVGpSKJmTJohUFuFKFnSwlhrQgYlmZcNY/RdELfnUO5l/271I137oLhTItj9aNru7N9U9zU2iZnS2cFg90iV/Fe9ikreEEoPqYb0NoE9HqR14Fc9EMTWs/Q6InvLhh6AssutpaaKY2AInkaCBPm55R5xcG3BBm87ovtdRDFqSunzuLoiVWA3XFZvUZW8/kB76KMVTvFh1drbpkJYNTzrvNr04JeCi7RblmqwKD4xt4BfB+RYnJnxaTH7CcDhT8/khX7tV7VgIGus9EsaIIZF/cIckRda0bnC/S/dGhcHuR+VcQKdMsispPrm9rypdMBTZ+Oay+V4e7GulEhzlJMbLz7V7cw4RZLTTC6KLIL41VdXmnjUEtnquvMIy9PgznyknCmTT54X2iEkne0iCqWTJowl82cscmzVO1iifAnYG0iAbV3NAdVcDwsNExVol7oooKbC5sJEWuDIgsCXIwi8mkQMeehvnzoL3wC2wSPh0M7FSlW1+cF/B18wc1mV32V2rcyaHRIljdPzomJKBQWmodmY7mU877IRSO0pcu4B88+hUQ3OycUYPnONE9tuMFo4uSt8LG1MUyYZnzBvq8PDfdXx75zktw/wVNFuuhymJgJFhECKKfBiM98Scd2qPG4wOohhg8fsjagP3yCH3l2luxqwvA4LPyrNGOfPGW6f3wKfLujum4Kt8hIb5YU1BlaS6p2lIwQuPQLL9mgsIuOfU2oos3ttUNtrTH58P6IdpdZ7H5eQxjo/D0ceV+n+OKVdnrizj1JHQrZXmlDgoZoY2fExYh9d4CWBtCH19a36K/5idKQKmU6ttgCjjdlqZ5LSxMG7pjxClLAGuSH764qHRL3apAfNt7BYBy150695Wpm3p2mDy6ujoA5YyEgrXUOwMEYKjiXS8+Tqxg3roFvWOkfZ5XUfhr5LZ1VP0y1TrK5+hNkllxSpOyz9fXCBEuzzOT4GI7XbDMwyGHtH1syu2QTQqJ1RmJ2tsjcg/dXp83Wv9m05y/KJMORtTvJEHk0kjxmgGLLjRICHDnfXtDR8bfKnG8uvne6YmmgooS3q2RYwXAqozl7V1sMAqPZVcjgbUAA200dzCZSWSO1z2+XVHR3vbbAPIFDLAJrapADjhPmOroW+eB8umiuHAF6BL+bnOdBwPuTeKuYIm7TRC+lmkfsHIPhACyMxYSTd8PG4Od4T6YEBDR2pXzqYlkzxYEVsDAVJ8Rk9SWYK9OFiCPK7DKQntfbXiM5/+JpB3ZepAkDq4f83q54LSqL9I+jQ8aBBSeA+wPsoUaciEQUkn2YXyFzt/woJrLhhP5oFR9pF5U2M+8rg1c9qAkQXTb5oLJb+Rmxl01PFbrI605qRcA948axi40tUatnRNZMKXDHNMcQFrISqSET4vR3rW7bK/T0Vk1VFWH+Ly33VUS8WsyzdaPs2iL507AWjl8B4+yrhBcSetC2aQSH7Ji2HHFRG4nnFAWmbQOxN/L2mRK+LC+DXpL5JG57WEqbB5j1HfqNqdg2k2xJkmx2SfEe6eXJgZGX6r8QgHp+KzhMLkTNdn2Krxg/ke/uWDFdcZQNoel+Xve7mQMtMMW/wCu+tp9Mx3jL7f6cYLApnG5+PPPgrkNVbP3I5ocgmRsfeyfRjVKatsWghkOVhfV4ysW05+oSu3RwzVoacvcB4M17if68LROQ1l6iy+5nDiZlC7QXV7/4Zbs5UiUEjfGMJJMZCUoCNHlVSNl6CpYvDZBmAARzqUqYLnhs5imd+6YZ7gHty9lDRBFMu+cVKNVn26s/+ETFwhZrQ2V+pQVvJIVXU2QgwkAaOlcg3Ze316q60trNbneC80Fi6qb6WMwv5tgmLWJdt3AE+N3SmgnMIPA6Qbej4N7WG3joazY2Fnl90o42ViRxJKBIcKSCwwt+vYcORwSGGijt5ZsZ8jG4bmk2ofPeLeoLXNz3McK4vEWQuf3xbUYZWc58ut+WwYVeodbEKn6ZYgR6+MokHObXJRQv8w83HNjd2SJy8rc9tDol90sO81sz/f9A0Oj3ujrKCIYXBY2eNn7MlCtdbVuqRG9Fz9IFTZIgRHGtXkPUVtvzG9FQU5oQcQVqfRWxkcmvwaEo3AhHYaf+Wy+63TlUj87ldeX/TUuoxN/dbZSZ7EtWIJ6v6idqVftEyCFoxSf9D7CWvw5KMfTKWKjul7iV44oUIqSPzGpB5ffYjAmC1lNuefE7eDgmncIqAH6kVKXJqUykXxzF4XpA8403+h450p0nKfYrrHYWlNYNIp+VOwRd638R66ICnn/cr/V5dmjI86RJ6/7HK2F/mZOBdAiE07Bt6Om2GHdpUxkrCRfgc26Mgm2mmvaMGfefRq/Zl+AWXeVtB3WWwEEmOrtz3lSXv3AdoINJk+4GrBPBr3+2Kemca+l2F2Qm6E0ItsZK40eZjtOKIiBNLVo5vV6c3EKteYfAcA11/m/vvbZBqHFIHZighlUdY+3w3l+LZwVIm2GvlcQxFdqIv+Gd2GuKkLDzh0ZISlVzbpuVJQXRl1P9A/dpe9B7GHcCbJtqWQNNfHBNUMrIF2uVBPNTDYWKNI2jQ8aBBWSA+wPsUxLHFxpNtbeAb1fQPICRtDlY6iu5u4TpgsQW44bvoZkM72Hmh/Q6HbLaHC1Cf0XLbChHomL0nVR339uCdGmDPDCL7mvQyivgkG9ET2RDF1zCyckc33gOf7iBG7Ic9W+CwcGf4LPBlNbhbFwtZC96MPuAHd33sGQJFCRXMWUy32ehECldzK4lGoPBtQhbVQr7brdR+Vi7eKf+sJ+WAZEi7T5oxo5X8vU357+hUTGBE4Ut1H/UyWw/pwDQpiJB3nleXNFI5t3zulfdmeRFEUazfNTb/Yr0pN/EINmmPhH65maEkF+iyfjg3hBiBX0xMArYi2HVRnZS9Q5Fzd2qIE85Jc5mnvqc8CGeVumVfzMtnIC04KFnj1pq+nOIOobT130NeKDj8JoIFOIce8YrUvj5cd5tfqkIBIkbFHGm7ByUjfA5I3KtgbHyHOerbcBM01LjLGwjZRxDxf70/9npJqjvcrblyzMfU7VOifBgyDE09VUXR2HbDqJuXhPmf5bEqjBtKkzfBUpJigpYHkE8RZohCvHCB6PMstIYRevZMZdgHjYIPokF7wamfQViUF4pz3pxTV10rYUNMQgi2qTFW/oEPxdLaokxR6fRkx6imLB5PZcjUoOb6iuHZBnt0K0JmA78iaTPfx47WF7FbLuuzCTXncoRixSinqtYpiEUuOfVdbFLzvbp+1mhPdS59CWetm/58KmhPt1H3LxMpm1RDh8U01VF3JSLaHrE7rGc2sUPFPe0IhbLY7hRlaXojB8XOKBtwRVrnLJZ9EcwudXCSd2YS4WTWhH8BOXfzyuDPKKYDGRyx1Lku16n+bT4yio9sDob4BVqr3cIpx3Ese5a3ASO8DtzVxhsNn0GndUvvWL6W6aOezGgAuwZp6d4sYc4QTcoUVwgdF99jyHKQo29tQGzyh5iKlC2ovgfhRoFwXNT5byMjYnZmbcGtKfMu8NOUKHwYLt3kJQcl4PMJ0r7QpxipR7KtyXQlDkTC1i07ZVLSIKeqCKptdJ8Keo1gDx0NUke3eXU4xewXcmQig7Y5mpoFoog7Wb8wleaffHG1lyWeSWsJylz3K8S/Xa0LlZQ+JOOoq3XLNOwvdXwzA/DQ7/UOAUquBByR8DevaV5WM5vHPR6JprB/Elf4+LkBzlM/KdO+uLStLMFJs15iZcv0C3mPsUqjHj3ie9B3WUXmAvivsQpy2h+ssCc7p9j7UtcvwQqxFbLCp/vGo5vgFP+9rh0bN/8CG6LSFwBUw14hj/iRfpxXLFOmWlHt+Pa4NgcZJijQ8aBBZ+A+wPsoeIKEeFpY5TKYvUaE8KwjBOiWh5R9ZeBgMtJUvpxC3fv/etPDC0xGdKbvPro6alo90Dpmv4GO+gW80SJy60sLmanJTVpIV2iHQQpyS3Cp2O3kWXIuw9NkxdGjDN9BVtxmG/kv9DzWBVMoa/ak+UX8N299NQHQHWPpWG0paQfUZTmTOAZBTA4XDqyuh8vKcxIELe5GR77xnZQzY2q91188I3ujhVtlDDCPhwJxDGPPwE3pCYIDvWNa9kKV2stP2KXYkG/vgt5ZDsnrz3ka8HhyZbtrVxX4JLs0zWytSggq8v7FUu44/+BcewEse5kK4K0f8Q2B887jUOzPEkO9RQ22kY8inREJ5zmBgyoYySghYfx2ysRJa8R7wGYoo3t+wnKyQ/3E7dysP0hQ4lI/xJs+bwQRpBFg9jnKhjkqho0jfA5g3qBQvhPYN3EHFwHS7EZcU1B/2LdFH9qu/ykKpUfAc0YevSPrF1dHrC55ACQSvTMj7/hnDIxT6r8NHq/bX0v2LyJOUP83iPAdNrZdgjXmar3iv3RvH0keAbKiMeUD65cEazWuuTs9d9kzmvj7rmmKPeTBIGVDTDSpl6bGAvIMkSfzzBg/qUw7p+lNlov2SZlmVcb7T+1JhAVwQ+MbG3EXx5qOltZI0k7BykRqO9nJv5hYz+eIglo31le9JrpqZr1NlhN3NiHEgqj+yWVzi51TCmsQDYgyefh4d47bK7f0LAoGlqtpo+FmL7/jZeQorNgjdJp7oIYjwy00voKdvgwoALj2sSvdcAimmp99+Yd+W02k2jWY6sp5BFj99UwfV86XhiMY7o2B+G6Ga0Ig+RU1clOlt3uoeD18qH6vISM8DM39giLUSTJfbpietRmhCfn2Z06HLt08jzkIjNXxl90ZRH2yY1ZmJnLx7N3gBrotVDICxQI6atLbcbpB1tcB6IvHj/GpEWqSAyuE1o+2bTmQczGOYbOWMLmq+BYf5+S8o46j7MNQwZ8iVI3yCIgW5/dn7l2TeL/+w7oaGnWX1HD2OUI9qRVoTNzrz4rl0w5yLbXYFGXQXIheujD5eTqPNL9iQNp5t9fKlImm/wChmoolmvXjgvc0b2MCEKDjPYHa660bBNc0vX5Xauha9X7Im15vqS/6qXu+Df4Sy55F0KMtOctCp9f61M32CYrQQAD/0OsYpyC7arYBWxVhLQHSncsPfUv5l6G5jAclXM8BnAeoQaryKaqQ7xINN0+tO0CEV+DPeCoxTqnKcLytIu8ZjrFVUQFT5ey8gub1ugypJWjQ8aBBduA+wPyRmTQakEC89UlAF78KPlO6XXFbz35hv1Ur6Y05r2bGHBIDOCVDc0eGta1BvxAd4LTjRhGLihF/Sy26q0Zb1qhjjNb79GCKYX5Afy/O9zFK6Pfi7CUxQdYXZ5eVlQW3XTgmzvTepZWN3xgYM6QDTvhdNwuJ+eiT2hAdzzGSQmyrja+iOk7AMRAhgD6eNP5zrF//MHlEiQMkyygteN4AOMP5W1eYUsOsAssIXV8UIe7yFluL+pG3GZ55EQmtb+N/WJhC/qG4TMEubBJfGtWJIH4GsL3+69c7SBi1CwaNqPayVubu/d79uTYSLMzJYvksJN0eT4qlV2vjI5bYco2b2JJ7NEreYn5JOcwdoHZnjdosQKigRj0sqYlV+JK0X1FEfiji7awWdoDKWdyRFSG3T+QJjtXZmiuJlTI/jSqV7pUjOygSgqbJQVi2aNMEGqFyRs2aoqKqqCx8CdcUCDrP4td4uPIOkSLDtfsf6Bb6cezqyCF/pOd3MXKRyA2J12ciRXP60xW0hKRxgOP55HP8agNw735e/pjjCJ6QdpZpwjY4e5wg0K4EDRWgDpTYQK9bjSi5/GSeZwpwH5u1bKe0KHnXtFOQfJ6CLPBmu5SgGfGMohz0GYozpTloOkT5KdSMbdC2peXaVtDknsPnqL1RyQhZdvLgxJCi/of2jsOc2/CA+Gpx20sl8qCNYQF3LIJkG95xwoZ+1jhWuVT47maQCT+WVo8yukJQyfOQe/ZFHh2LVxHhs4a1qjyTeYpBrsCMPT+nOB5dXIpnFRLMX9syvpnQf30U2tJbSJlSuhMoKdbjq3tjFPd5ju0Z7R9/H1p+o8d4hPzxS9CVoVz6nW/+7SM8DUolv/lRAGmHY4wOw4HhI1epjTmiFxpg9vD0U7zG/TgfI0tDiUNL4SyM2vLVS+7D3ntYb/OXuIQRZThjtSqfo11zTAUw4/t1p63L79qWhZmbaRej5S3JkkudyRLtsNdtEdHPuwSvDGLmaD/eqAy7hGd5ta/0mF8jinkLHx2df9L5CEcvyeI9Jx7GqAJDMJImOZwXwmhv16jIKXq6FyD8tg8W/KhQd0+7n/uKMFfhEuSzfnSwkt3UcvqAe5grt+8UMaaLBsTvcjaPo87UcoMgubLzAR5xQz6XvQXAE40aPZo94ILvUJZOuM2OA+DoeyJsJ879C4Ohd7HYspEYf/TRw8ygFt+xIb/yrk+7k9yQXwSUVQ2Oq8uRNsLw3KEksQEHZ2mpm/i78qL9Lo4o/+kp7Qpk1LFNlSm9ZXEWxgiFI+jQ8aBBheA+wPwKGVenbMH0WW4iCq2wvyGmQKPxTy4N0hVHD/hz6Zjz1553R7alXQIN19+xdCk1TPrci/HS/TjtOQR+5MoLRLL0NM9vyldU8t0vIArE+V0U25G6olKEsqOZhJpE6z7Z1lA/jWVdKoVa99NlGtC4rDUg2Hh7U1FPGBqGipUlHi38PEvLzQiYOo8L1uijh2Dqa+Qre8dNFF93w6hyFwMUzQSZG4WzHFhBAx9DJYaqQ2zUyj2UaXFCKkzXxLt6W5NNsiLL20jq2n4XqDaPrDyORFI8Xan1SQBLHs+Q8DBoRvzUMBLKuJMxwRyj5dXDAj/gzfeK4THZrDbdArW1c91gSE/IGXrJBNpBvSHY0wxZ/zPoRhKN1ZJ5tiA9PSfp/bnhDC6rkgscNcrBCtuLhoaqxQ/8yrrSdp4D3rlIFin64iUjPBLvrCujkJE+5ZlbtvSIqP9plhOURb/yXAS47EEZFcXmIwRHOkRYga7YllnwjBpcjMk6buTBwx74AFd3axXHJchP0zLZFh1TWxhYfbtfLOfGgVHt0X+P2cRZbq+bvAe2PULZ0BYsq38XmlvS72oHBAlvp4axDJ2UpBgXKgZsm91YDbCrWDpUI0ukudOYtpLvTo2nEFG9aCeLbiW3ASK25HnBHC6btLvxNMGpojrYe4HuEBjJkEgKo39ftUiGemRk/Q9Y7FRgA6lGOa2T8gJh34g5ot3cOxnebW3P9qBRrlc3xxdLUwToajGpkdER23v3iTTQXXkX2Qs4wzReGQHSQoP8pr/o/tuFfejTkVLZ/8k3ApQz23TgKWabPJNBcX4+lsgWStYrW1TbT0qxntAn6J2Se3krrNLZ4LKqEaeazSC8DlgxR07NHgl9q/VNjtB+5ptx7P7KrYQa8+Ro8+CXSU7vf7A5FvkbzG8XwLtugqbdLEaayWwLPZT3+yuPqjpP3yiD1DEoYN1100UXMqP/2w4v7Cbziow1ftzj+EeWyzh+L00rHfTJN8WyC9t73SrmRsuxd13Shi7RhWClR3u44kqLxq0uNM5b0DXykw+/9tlrXTgKr+nD4w3Xr8L0hnlnDz3d0ZgXfbbL2HSbT0e4YyR9ipntE/BkFhIu8J7cvRHn9qBF2wtCL/UEhw791CZVSsB6wrwACybFpsk0W19llpQL3ppMePwRXvltjORQ+r9hvP4tHjsi2o51G6OBnHSAFVfoOXzyONBODyRNuQpzFuzZuTpKfKEmY/V0JOJDdAI+GLdtzXgp4UbyZ4nisSmUcO6eDCyM1h7hJ2+HfSBlIejQ8aBBlOA+wPxqYneWxgHtfnwKlM/bigcspeEQBkerbxX9t9EMhDRR5ASm099z1iSxW1CEXhc2w8nIX8L+G+iDMpjLtj62YuDKtQPS5OMv80n22/NyQNXLAoAJDol/dSoubGDzRLEmATBqUe+qn/ff2IM/YAnPYOuVgXOmQp1dUHT/QU8Hl0VPQvu+IUzy47Q/PfBzOYoO/m8GmIr3IFpf5uS1dd/PKjaoNvxkR4l+wiPva5/P6n4yb8zuKhBUFyaiODog6AwV5vItiCC2rsXww6djREjbbomqdqXs0AZvOYpg4KyCyDwUVNMT1rl1tz7HMxu6/MnOljWQRMqM+2UWg36Ton09pQRgi7HWYqugSamMXOHZ8Pxmv6GVZalqI+rcKQpNwj0IP7McHq+8451mPJICrrjoM96yq2YrxcvLVfW3WShlpBUjfAoWIV3CMK0+vNcdaCG+ce2rc1U9pJbzynrbiJ+oxIs/VJfo+MPgNlCNOVYTNOw9IFolZoxWjZEEHfMsibvxtlW09UAQNpRW/s3w2LojQQb0UgIM53+YMOQJbvP15gr58I0GwzhX9XMYX816MFB4F3O2L5ckeJgvFAJPyDzLi5VQ3xTFT9TqOv7wXQw6rmlsJb+q2MO4gGdN8wQFZz9tySO1V1s06gDzv/pt6kU8rQAm+O5rPDFCKnP3VkhrFclpfAgbcUExPmvfWk6re3lY+1w/sUvMntgwf67a1wPkdI6PTGrgwHW4K//KkICdVaixm9/uZRdzqXoceQJp06tiTOKgT5sf2TR7swwd7EdFBdFgoZFpjGlTngan6inyF14tUNDpwd9abh5wOx5J5PXelUZHcf0JhMkyNRK8rYIQKSF8a2/UqZbcHsqxlCemDDYuRRsCN8v3cnsTt/wxYI/7r0TyVnbFeM5bkqaJYEXMgTTnDQF1RWjLc/m8BHICKbS2VofxVg5wb2mVZzik95KQ59PTjsMgefYu4L/zW4mGLKNHAdw4EY3lsbGUEZ81rlEZV9LEiTUwKQC3YhU/CxwYiuVZYrmYwiafq/uQFwAfRCO1JoXktGVv4NLHcPkvfqKvDupXZJuMYJVbjasJKHwgnU66VTzd4AK+xXFDIF5edHntT0qBwkAopN5wgTbRAaAIExbDKIVgFMuR5KAvTImN4rhkisqjQwb4Y69ASQOH5o/qJ0/Z2xTdXPWG27gyZUd2y954OwQf31jYkhf+Ztu8bj0o7naIYkEqS4w0uBUIIMJA/J9VlEr0ZHakYaNWszcaGduUamz7qqpgAsFurVzRo2jQ8aBBo+A+wPvmaua2fl53rYlw86i5gtWLR20dmck+qnocxmRps3sd48+183sQ94qeT0sv7hN3bfKUBhF6ntQp2O2Edf2SxwFUHATQot8wqn/Mpq021KJUcBEZqtLa7PJJvuxaQXCB2AgizsCXDu0/SGxj/+mUdwmdQ7K6+Agqg5grbMKZlxgwO7lwiAyKujHE9Ctw2819WR2z+BwzrhNp52fCP+Q1Qb6qDsSjEBcaVMulJ/+euWroQZpPaAATmEe4ku+8Kzs7/rybB8px/ZtXIslAtK41N2+D0UQEeG4dahxM6RhFMq+k+uCZz6pBhSORSN5s6UmJW5T4nqeSvvj7Kl2ghXcUV1S9OI0f/KaW9aWdRbKGzcpGc5AqBB+3+6HZw2nd2UbOIQ2ra8YlRsr44JAOp21GDstIEhPb3i348fnT7cwHB8miexMWdt2ValnaVdW7bFRjiwOdVTlG3MPfgq9+kZrIkR5YAY3VsHzUYOOL/2Q6rLbr9MwyhoGrTqdgEsXTnjNsHpXtsWf50WTAdEes8ORBZpS09mCcUU1G6bFkkfHP4JhNFqHJ0zpTJSN6nidbREB/+1HUp944CY4fQsx+RE8ukZF97zzZ9ntSYFIqo/YlERLOknFyiD2YroY71jfSBh2F2FbFdd6DfiMHjcMuaVnk8umpjbLx/IR6I9wDpetn8I0B0QCKfxNXpwFj5u4ELxaED/kVUYeQdIgppf39SjNnh7MMkXmYGbb/g8FeY0ym78NANl8WVwXhOX8piy6c/cHVI1fOR9tnqEkcA9Vv7DZHIzHTq53f4tHCZVwJ3enNRaX3WFkYD03S1OFrvtb+1ERCY3hNLW8+TlEkbbmzKjetSaP8DmB1KOrBkQbUwxkFYj2CKUjBVT1eGFp2S3cX0qjgGWQ2MYrkKwlhmKoxbHmAgnEQ5qNN4NdVJs7/5azVM3ofERpBvc82lZRfPBQcOixnZKit4gUIVfKjpH6AbSyoNFzXBiO0Ex4YdWn8c55kYssZyQ1EhgiSyCqY3qlaZxk2DwxChlDClPl1Df7xZc9eWflYcJgkB67s/2x4+JW2YaqG7I/9w+/2T9Yigy4C6VmdWdfuqo+JB6f9BjkdISjf6VVuovIzEEUOllYdTHmHXYWYF4zpyY6g+ZeZ02N+YsgNeneQoVf3GZFEPPa/2aMifpjnFiwMVqUD8jGIpE+9F4vNbou4FDHDg8Pm3tRjH3r44pcHoSP/fAiW/MJRzC9r7MqSxd0xtAvvXAgVv7nDGyymOEgnPrficm9lwT2miOkNo2jQ8aBBsyA+wPxq2DkSNBbeooFiFfetopC+D9xUTjLb9p//hVLo81VQQcaKALaqzmxVDO36xdbzzEIxjtjnKal0aLTsqw+RWBXPSJu11VhyzGRAo9KXj2BLIySPU5LmVPzuN3jDDATfqoF8ZJHR3ebHe1P7EqBXaWwPBe5nuP7cVGURqvlUlYf3DlVuEhqB1d+pXxZl9Mq67QPZ/JaWPm6h1togHN+TnTB7cZk/3Tb/NnEWs2O5ff6iTyv6UTjQ8sIznPcLK6zJbVrxMsmNuj1mbLKzA30MjF0uf/GiH7hxR/MgtDdSOvWQZHu1JRH7uTP9aWL4aJIzy9RQwX9tzvMy08InimNlQm8bRTw92utMPTEYvdU3TnWA4ut5dIqK9luerOPapA9QXnfIDPZTnI7fkIcP8OfMdn6HeEJpOkzG3r2vhu6jQDmiPA1HRvUY3+wnXx2I74gf5DvzFPlFHd/58l6pUpTPLOVs+LQ+4T0B8Z5QuMjRc7B9Ek3BpiCqmgD8uzg1tsDEdlItXkAvALpunmQwX9QzDfUv8eH+82cTEh3pPMxerkxfdy3CtlH2623U8BmntH8I2lay0ZWWwzvcQ2k5Z1OCQZ9/1/gdcQknXKkTSlbe5k5VWlg0VD3Xvj0aQgBRaLHG8y4Qc0QlUPPod5DNfvow7o70jusfYxbIimPZ2yeg1MZZ2moFUPIhrEmyZeB4d/u33zM6ts7Ue4Bzhcr/QR/bHakdOhfPBAsh3plUAuc/TRV3iGFxQqa/s60WyaJMNm1e+pm77J0nfP6iikdfDT05LoheKsc3c+6UnqRoaNPuRTvB3FCy9Ibto4hwr5o7hk2DN2aLeiR5nzcZ2xVmljbqVaN8DHj0smk+nO7MeCKWJq43g57+3p5sI6CdqKpDyfFnWCRrbDiaw7XcWUK0T/NPKgZ6do+spb+vBqq+FLOZc1vG7Vl85pXpFHH7lyXrdKzw7IJK2w8pNTv0ch06sDhwuxSoB5PF/DTMJn6O8FAjgifqS/sVKSCyLgzx2+AHTGtxs5knn21AKDT/XRReBjzq0Qe9aK+9g/ba0b1lTikE0hYdyiI1wuhVP21yzwAO5u8bQQ5KTrNFr2Xy4SHvLNzbQzS5VPAp5sb7pr44spXN/s1oZcFQLWqhr7IrqwH0l/Dt0RXPUgXgCU0THyojEea6HopXEwxEaFMJQ2Vq6yOEfMEi0IH6MacSL3KKLMKOt9bzloSND8bkx/JW9iIGra6woRmzyS3aXk9uIlF1vyej/wkBhaDbAEXcyQ81vbXUYYRNoijQ8aBBweA+wPwOE2y+G2SmchK3BtnlygzZS9wVtz8hvbIMBjRU57xb8peL1MYkAlLd+PSPDozIJsXmPDrFdUpYX3SKpKN4yp5wdGdBDq/GyN81Xo2rVIQ8qHPaHgkh2asZrD0BxfEJXm8At0S28WUMRv803DSTAIGtYmO5Dqfic47u7DWgjzgyr/bt9LH+pl//CNFeEr41BhVuOhbDLBHh/DcsR2ubOShTICsihamxcQKF4mzRHSfnbXyocxizpckFPRr1kk/KipycXI49NIbAokaUKqQf1M6TOaKEBBbOOvX3N3mlNe2SWdbflb1FGuNl/cMctgVWU/16vt1NPnbpwvwhySLv1SgFyUbQDRkKQ7JAYo8B3W4H/imS0XNir1SExS4dJ6MSxiqZCqxu7XL72Lae27LS0FxPD6G+Uh8YG+CbPRxLWmmjfBLcm1LGkQXVbpQQ6IFvPxTjVNdGDJavHZvEC28sqJO/iBtCqwCW5+M/WOwjPV1KA9R3Lm7HnsXvBaVFOiZGc+T1XBwCOBWyHt0t73+nvicXTHGxtgip8zyKFcXefmPha659QMbuK9XndcoMvpVNCD5VhRBKagjEMOHwxvFxpRtBoqcSRSz+JdAhx7udT2nUbYphJ45Y1pAQ5+WfY55RE1JvEbTwzOJTwkkJHZmYiYo7Z7BEQoPLSoNv4k1qUyzkvBQhk/LzWcAyswKUz4C6pi9+rBLaWzHS3obgJgLj2YWgUl0MNyyvuOPz2O2YC71x5QRMOH/HQYHk2OPme4GK4q3xqkfeOSGvfyXPCdg2aJnEKjlyrDs5av8anDeiBGmc6FxDhHDZBBxu/HQXxUSFwTdT31a1pvB2TVDc+NZPWSKVB7KYwirjOcCQVf2MH+PnWX2Nxw+xFRC4PC7M1SI4d+7OnGofEdJH361WqYdmoen/+TldD7wmpv73xib8yQS0Ch4tKu83hci38815/lkAFTCvKDJFczD7PIPyxAifeP9P4xOFhn9SKrb4P27vcyG6Khs2B9pO5DSVmo9BMWjoHUlM8FjNdCGbvEmRLn4E1GB6pXKOGL3qNLXf46R4NxqQshy/os1qQS8Zn/9n3kkwaDoTLSRbzaJ9DF0S/Ae7Ear/D2ciOAbSHxqb65g/lAxc4rTvgqdrbFtPXwoEHUmyVlK6CZUWhiC4qnWnCN4OI0WIcDHPdhwyUDXEA7F+JSptqYrN8cTaTjN3VmsdsIC4pwQhinsTUtPpsTm2sRwIhWcI2BCr1u/U1lo3X8W4eOHlz+nGEIbDPpj9dz06iGg4EajQ8aBB0OA+wNCfhpRFH9Uw1WoUSEMy2SuDaGN8Rexvcz7RJIWxHRVD538Ex1cjcuPa0V8usScHzVGO+UeFEXBCc22M5GPv4++xdCuqVuSFe236CknFrfxkjcZ93n65or167sdN/xw83dticnSE2csiip3PkH8dXIjT83bovl0dLoSvva2iOehGA0h4sZwpJCe++5mNsKummLnYR4rmrvmUwNtMg5cOmgnUtazycDuhFioWtqy/IeaiFQ4BaW/b1afuEt5YTugApnsn7Tvg0FZwXzAJCiyRdlMZtQmqbszcYnJOy3XGfapSywPzjfNy98nzebBGWQOc/i0+EJWhz+9GkHzZZwY4TmVWNo4Urm4i6t8at1V4Wd7B+RrkpU2nFTh0eBT2c18aPEePi3iEanjNFTa9B2yeKnL5tSS3UJCSUG/HjcV7NqHtfGtvG/GdK/WRU4xE4gwEivy+vStn3GuG0jVNFWz/hjRq8O/LJc418lzFtsxmwK878dY0ZHjv+XkDHOP24UWjwBVnqqMbPuEgE8/Mv0loITppQ71LSc+zLzTnmcAxacD2WVPxQxJiY3D26YL3AeRrPTPzQXtY7tCWwy5p/rP35waDfa7uEewM3FJer3Ry+WB0AzJ10BLtEigSLUCzZGz+1Ws70JPt8V6v0QTGE319Y3/UHIzC63k18TEJ42SZxM9EoY65GoYxmy4RkL0qH35SMaE8SMpFtNdQRUc716DGYASLu34j/zap3HQqkVXGWsQ1brFBZkp+C2w+wg1VxVxpAa4wAvCuzLH3kMG2EauDbVKR6rmcWqXjtcZwyxyv8LYYD4rqcBNZFTf+4zoMUmH7xGigMHGJDbK2wWw3NEkUWSb8DmITj6LEQoPQHmqc8GnxFIFKOIE1Q9jkgVSobB2lXVnZUBhT/5IBml2G2NUs8HkvoTwg7ll+wu+zCnOvUc7HK9QLLPNVNXpUo+yLLStCeChGB8cbTXbl8ZhxgAHNqpHxp7eyqgnrxxmLnZdBuBLW+Acjn1BS63Y6zSdnO+zpv2WHIQc+ZoSEjBBHkt2pzA1PzVPY4CZd7GFfdnkRs9o/mGVy8JGsNRbnvdYattoIYKn+IDn234jMTjKlQjuLJmLpWVuZYo8z0Pbw1YsT8E5O0653HA2G1mLOrtATQ6K1aDGMHUwmvsLp+0ZsO5vlRuWJ+WOZWOysk1WbbJC7P8SxKvSw4pPxsjq2jiycJE27E9ANx50XiGotquXVDdzPw+6GYkB/WLrs7MvIyoO+RrcQ0Lljhb/j9g2n6+K8VV45I2jQ8aBB3+A+wPsXnDbolJlTOz+IAnWgm0npkUlbcH/ZzfJJ32HiAQts/RXM969FEJfRWiT4YYzMJd3tn8t6WSayhDV3pv88/arfb/FrX1lBS/e5GSODwMYloqBDKVTEYa/FmDYSxqYvUah8BXwY5S8W8qKk3Xwa/djgV/iAoobOFZiGECjzNSIbAdnVq/d4XoTc7AjZ7ouZSUQTGmoMs+fo3Tw5OBdT7V3uo1p6MJscCGEr5AsCZ+wuY1gaQqqRP4++x3eq78S7pIDhkSk6BlTctD7p5406D68ObKxYeamPZNDnkmVC0nm+1dsh6y6v1zuP5753zCecRp8tgC7/kevTB+ye5KZCsySBSdIQELwoVywzgPFbwoeP8h5m3I/jXTtmHUIeZbKY8juKcspD/DqY1FnE5S1X7AvmC+lm1j5x+7bBKFUj+2EjvBObpCrRUVeO+GrNSpaAwPF1YrMhvm+w1BZsLhss5MrfHkut1H2fqAAcZ9NjlTjDlYCZ5WfLmQ/HziuY7zeoSK6it0Zcd3pN8q1+8tHgScNXqoblK1OFgz1Tmm0JfqhR3Je5cUCQx/LjayGpwo8stfl4gAkWH4sKohewQf+etaympqPkEt/zKiZX511oFfo1xMARSGrkcY4rGdmMpqO8TmNe8LvcJFrnHxfEjVKenjUSPMaUekFYxG8Wm1EMZqvSTQegGtti97bvuiDQ8F3zRxmkomLYcmtvwHyu8x8vFjKj1r0ugQNLVysYM20dWbwHdRO9sCB3BdEKeWGM5cBY5Zoab3y4WMy9bGm4vArzCOh7j0L985abQyCTVSe9/5t721IQxFs+UlmlSAhHC7pZ6NDwnrQ+RcK63CI+n33OLSM8CiYWBm/PX7bbJ6kBssK6Yg0MpySF+6vWa4LjqJxzHiUNF4yR1HGnk1Y6y2R0HeTdSfYMjUJWSEHncJiA3Ur6U7MrRBKAH4m23HgBVMM75rCvs3Y02a14hD52FHyi5fKHYoFULOmKOVGd3Oqu16eyazHrvprncW0ZHVJ8qEQKkV0fqKubMP/rFQgnRXK9XASe53n7SS3lyPs4xZGJZ31MVFGin8wPCJhYrWot4djm9yfv68rnYzgGSHHq1/uqJnsz+jAfmz1NVMkYz9VU4hqrJQO9Y1yUEAFLpmeDPHs+213WVR6hEbaBQehEVglxPfESVdLhXhGgioRaOqXkD72LHIvvETv/fZnethsdhXyddsSUGwX/OegAt124g2uOPnjcilJx+ZecAUcm7F6ZnJYAOJQBPY0+c4XhMLcOqxoNI2jQ8aBB7uA+wNB2sg4BTIfftDHluC3iDLL10RK/+QkoXtFiwD0oNRRzGhPxvYjvD/LkyalCW4DoZuTF84BbbvZ+PeMZmw0pXX4sqADtevbA1STqrR9nX35o1WOi2vovCw1PygAnnnSxmRAr6Ns/VlaSHMbU65wDznN1pb7T/JFvlptc5hfG7dfOV4WX6Cl5XHBPLqCTAHLQGy0i0lbxw+Gf0mPkEvPGrrgmJZ6qUjKj01G+V9d9NAheDVeb8jKkOiudBUGtu3eRIEbpWE3HgGC7fJmF0EVjCXge/854nc4bA8A67Q99NozigbLc718m0HHv8v1tNGNQCC2WrloVfRkFbsFnbehi2NXDvV2AJvQ7fiRgqPTThJB/XH0lbVhn+X7oU4K7jOfjoB575xsjm13u/x1y9v9UAmPmVgY4GYq+z9HlwKE58AcVRQrCij5fqdh+Wg9Jr6CKIXU6RYk/e016RUEXgnYHBKWvmPeKImhBxTMWT5YL7hKbcqIKkscAtB+zoG+z2wwT4C6CKKk6EEyibPSiSwBH4rBLyQ38D2wDRgDApM2pvfuizDOJ8Jkdml5JrLpiwTz03keJCt2MHsGU9oVMwCrp6pUpJGR5ciJBrKUE4HS8VV4cmHm/MSkuukzO/btvBsPcBvZJWOj0WwSkggHFjjUgoyOPkzdDJ/CUNrG575sUBn8MMxorIXFVTHbm7xPZht2SAJztK2GLz8HrpKWoiw9RjAbm/DPg/oaSP0wEqiRWaFWdVVA9mCu3qwoAX0WbPoT84IIrHbUVbbSJrYJkf12mtTQUaWhS+8tZrJkopRraagfIEjS5XXvckPPBu7jOMvFC9KsYNt/ay/PNLctLNLmWjx67FLAucw2htb/k4SUj0hexaPyY/0JUAKWw+JMl/dlVrtWH4g/AkxATBkrMmbl4/8Ky7sGfHUbDan4V3WZxelDHfAkGaup/RLvpbUxgYUhetPWJnNtDZxPN/x6YZkhk4pnYAMJWcGH1S+LHjqXXFv5vFt6skMxax7XpqbnNEcmMzfgeOys11G01rhqeuISYK4WTUc85/c5oYTPFGgkHrdeKsyptqjpjriAFXl+BMX4NzNK2epkOaAL70jPVR695SYbYeVase8bGnRRcKsCXypLs+YeplH70UTbAxLuGTn8z2m9hQtvB8CAh8ymI1yadpZD5Igqig+kXQVytSnH43mDFGLA8fX8ge7hvgfwxA84Uj7E4YT9rQwiDiGkqUrkTV18s2H6TatxiLEvVgP2MMtHR/8IwlKoYAYDWiFHmiXUFI+jQ8aBB/eA+wPwPUdFb6qOCgS8ns+ZapyYYyr9jiuW3Vb5jfCWw7DElXCRsRxa9dupd8Ww/nMF8Yojt38+A96cRYOZlPpgvWjvhkOhVRFFFhgN0sDY2ublGEdrjtePDfoePzKsvN67H0f7CDUovaOgFUQVCOJOE2D+uEAP6XI9JZK27fUkfg1duknf98rtvzmGaUNATMFCvfXSLS7H49sh3OJMixvfk7t1pxhBdbxpndXHWAV7G7Mj2/AKM3m1Nlljv719aLJc07YY8kcbiZ/tSqD2QcHPje58N5/L1b769FrkWQDvLL3JlcaHfSi1j0lLo5DFJcpt2CszuJFYPCVTPsDRpcVnRvPNnmvEWWkzSQGs9co5LAeL1RT3Rm4VscowPgwuW8NKw4yHrbBU+SZtoGNesw5sy/X3iRrWBXu8GFd4zNS0DaxUjfAzkM4U/nfkUoE7C46V708I5vq15lRDkDJkrs/7ItzsAwHskfK4xs6S//Jl7K2EfkmVD61d7OsftyrYYDRYI32x/RWq1IMo9K0vtM8LP0FUPI+c16zmDhC0EywerDdgi2J+wm6BtZrEZLO9zW2lq3d4NHSVhZtkID2FXxcoOkchvSy/upbSo+Vox8892cUW6mhucS40xFNMax9OG7ezWqm2TUCKaq/QdfPX2lONPaBot9RtnQQcm3E1b7sNps3XHy32qAxoO74Y2l/6tFGkTekz/R6Ymeaw3M2NwVhkniLtHcBShmBUW67wyyTzGtrYLRQplfcqNQjeHSXy5SINWKQyUQQhT5OiqJuQcQWyVvRqtddaUQCUSB8OFf+jw+5fKWiObnzoAGzrnD3ajdkGFAoxbAJU9inuJokDjswa6ASR8DNttW9sExcSmgRTYq9CrHOuacUWRjJL5rmwsSHLE4O1g4H+r//Q8YVIZMZ3VM8jUkcwWIUeghAHVNkuP6GDE55iq4TKnBB08wmeyWf1pX1/61cgNZLPlm+NVxKc5iW+pPiLW4Blt5QqcEzr4TNpKmTmLJWZ/VOoi+26ncAUCysIyTfvbuKxe1HZsQjIDRSeynki3Bv+sY14J8TNsKHGo7ZrcaVc4/+iBNrsiyn8viL8NMFJo5K2j2O36Uwhjzg9FaiW30qbKJ5FS/c5+WhFOQQQxtaieb+x+U0l1bmPWTLawtWJvTOSJEOv4dbUFwk4AxetsRegJHw8Ffw89LorlOKhvY8likZpw1Ae/2gseClw9qRzm97l0O8VJYRJgEuzWYs55nj5tRWCIk7/k3JkaZMk1slHb0wSCXwTRZiLNJijQ8aBCDOA+wPxkFzn6W+iLcC3eaPFGEi8pY0z8ixUAZ/TvX4d7VOSRivfbmAJ784H7/Nml8+rGBdBZrii91SA94QU+hxK+qP+rdDPBla1R6VwCkTXxfmMBSBI52oFnOWT2iw81rbub5e7AogHHcaOVdffxcMC7iiaKDtotysh58Q0KoVa/yhxZ1JGVa3yb70S+HmyrZi0jVjLzyn2GOt4p8mZwagcrFPN8uA0MMLNBec/BLa7ryGmYTtdGWTefXMgL4+1JhYiduDgJTfki4IzoVYX1RGWExcFtvVgmDzAD43hFdgS4FHUUJLnv3DNy70dBDevfo97OXkKEyPuql7a+cfXPuEJkdw0zlLqDrlhwSULYviK7fABgVfIukF3WblCxVRzmo6tRryfbjaU8EUQhIAXS5l7mt2Y3hFYLBI3Fza5G0sjFX/0kfAyPKyemXnKeu2g3bW7Z0EUTdd37jzrPhoQ9N/iBl3MA4Db+x7932rwIw61bgtHGVe7tsildgcir7qfUTsYk/+S6ky/zVwJDxJZGfuS1V2yl0ICzieD+QUOaK0hdY2djUMlJcyynQiAUSOiI+gEIoZ3V6/5EjXQH0RkA1MkvVkIR9eeXP7l8uibrwDRl+uSCa21Db6Q9wifJzopkGpGoA8dUWIXAVjbxsAJIFCvdN8YGPKBepwL/dQryIkK0VMfHuH4FSdHXOex3hCEB3HbGXBeK3zqHgseNTjQ6sliv5s/gbMJFjssBoYLNGf9ZamTKsPe7MnBx+QG2HrwX4U3jn3SMVTHNrKeJYmzGh9JmPK33N8cYiczetQhsaS2eUcOXeiNrEmvoSR+e7IwzSm+waH3GtAof1gcX/50VVy3IlSH8asJ8MR/iRPjwrUof8v4bIwLltU7G7Vin9ysHWq2EalhGnnTkf3xn5NbkXbanQPqnmwm6WCA0K4TDlW5t1fdrB2a8yWkU4sG6E7X3BNtmQDUhsNWJHBUWNX7MBURXDXlqpH1tgPojebKX9hTBACSQKAPXKSvA6cJ8sfywQvXW/S1ULw5FssGV9yG2uSfVAS1NT1sb9GAo79JlvZEj1S17V0pYn3+4X4Nf00yUAlVyFWOIdZW7mI7F8YjPNRKF5WSLch1ZAqVlON0sMI7lta5yU2Wwo1u1jITcW2TvxzFL3fAfdr7vwrMob3xwkrzmHveLKDq+/e+JhrrI2qlh2SwYLakIk3jFePWijuWakf8Vbjw65FuOszLwSHKAtu/yennLMXo3SKLAc9oLuqa9RPzbqWd7LT8J1mShOIRA0WwVJGjQ8aBCG+A+wPwOVGTuArWD2ypdHe60ERKl8WYJQpurjs/QPsPnIW2QzI52u4S5rgZa8M9hfXMnDhvU/+MK0CcNFu63sdK6LTueK/yIFtaGFyh5oNNNDgM57D7LIYcF46+/bC7yQWc28Id771n99yoT6WCeIt7zgw3QNU9kihkkpzGPizT5EbJ9CshSBUS/kPN1cz+PtbuMlJI3mro3F6irb4Shc2wYOTf5G7edyQCnWM4yGPJ+sMWt0vMycWN486F9dkWWptRyCpSa7JuOI/2Cl3kZHSOv0XRWMnlH6Fti8aD+vV2Q1h/qjM39269iCUvyz9wCsyy3NT3DePsgpRGLj/U4fJL9tRMxQjEJaKgGdFtE14gSRTzWdSMjfvz2rKDBT+hC7+wpQ7n1ywXFUioNLlr8lxdAwh8kLjM6qY3U6VeZwSgK3vEg/Az8NiUkx+XeRS+PjFzm6HpJB3csuc5O317Zmdlt6rwnIsNaYpXFEFu1tfcGS0Tufu49zZFpzIq/snDF0M7ci0jwc8QpdSXobUfuqDPCLj0weFh9WZKDPYbMse3AMBA0N6F4X/Z0Ag81bvfGK4qbOA/oD+pkKNZIC2Hu6SDXKtxOTGi/Qaq01ENFp1zVk+eNSLCnrFwnV2VxrDqAsxSPlm9MGtodaHCzrwAOT+MDqchOTidHzJ5bNJmIoQk5hDI3AqG9f3BqenMGCiZTgP4K6f8//Gxp4+as5n3U3qKfOfe01NYT4EPdmYEYToqY9l1B86g3ogqZXwvGUptMLZaKHASjX5h2s8o9Cu3UedjvHFUGp9D0XfZ8KZjUIVE2eOtqEFN5mJavZAfiDl5gzqYaaAnGn8hmbwK1zWSsuQR4TSL8DH9xrYNVXj61l57xmZV/X6mN8Vi5tJIRR/0BQg/vEfWSQX1RO5PVEoxk/dA35LXD0wHAD8UfRnfp84ZoRXttHQY85Q1s1QabTda3TOWhrDPWDVdxKAguLd0KCEB6w2APaUCwucERXN87wlwBam5dNubW7WNohs+eONwJi6SCpNvsShFfei/wQU6W7IWXXUohT1rykQXdHqhmfrt293PBeM3xnxaqLI5TKToRdef1xNXm+FDCikWfhuKybV4sVTBHfA/N3FkPL3IEPdeMJsk8jFoHQHwpGeZh6ExkZroV+gzEqRSAo5J4bcJ8CyRgSowRqOHoEJqikN8QYTVgqAVsegNABZF/NpA8EMuPfyGtbbzsbehEFgdgf+11Tl9t06VxS4tQGlXrpuCr+D/TwCybe8DyZV5626EpsLx8/jQ1I2jRJSBCKuA+4P8EfwR8EuN2OyZEVEfyLuplYD4o0FNO+Mn4KWoOprZACjyxPWMfqxLG+Fhp623D4rOR9ECoNOCScEBnPSZe46lnvmvD9z9IeGyQFp+ICrYSazXHDi1oAvy9HhIZtW5WMhmToVn1lPikUdoENguh8z7B4ALQRVTJY9eGqi2LUUilqQoZWjAfImEU/SeJKmZGTiAC0nz9TilpDGa41Qhpo3/cT5Oy/BC/NljSL+bJJEF7wU6a1R1yqIvMvxQTVKAH7ybyWZubLRmiPHR/jmv1BznMN7ZqR/oja/SLtNHTg5k8NFacfD9R6hvjTiQFpKK0cgQaapuM8KmfZOuHUfBO+A8HLkhtRvamcvD/4FizraqnB8v9OLLpvgjxlHiqwXcTTVPfLhORd7EiwX43DxCjP5YfHmOCsKAH4sevGg6lObisxAL1I/sXoMr/xrbuhGreMJKdF4aRXnXfdZDvargpoM6g8rz0+qOozQY3LGNRLX/+2fhOIaX+3AN4a5O8C+KscHZYMgC1Ad6lLTH28OElCYmJSR5Sa3B/C4fIxX5CwVfCVbvDE7zOWP1y3bE367WFXRpGdkIGWq+JHWWJkKIoYZ+/AB7POSrVUMvfY6yyM0hS8tfrCfZuGfPlqB22ouoHDGMXegR+PJFjEA51H8FYxHOcKCjBFruFsBypuQNPhRMuCJoAM3A+dFOWXIhQPLm24HgsiTo55ZdXCGHtEWjO+Nnrw9iSIx5dD8hDcSKHV50leydnsBXTVnMPkzFAuRUCJHDDlOw3J/1IeDpx/4wCBz6i/nfKd8HgvsqXaV1jwelt+GCJwkGmPbG461w1D/iuUXVgW+D21Yz2zmQPuOH+Ink17E0jX5PpC4Dk0ydV/H2MvWAKClNEAOYAownMMZkwXo5snDEY1Ki7Miz3Q/40cmUKCPk1TT6GlYkUFeDjaW2R4U6nh1wDo7i3r6STLaAcSkLpholk8zZ8Rn7BTgVVPiPBiOJ7G4kdX4YdmjiM5WoXiK/919TahY6aZ0OgArw6++LqbYKBrR5rRbzjNe03WaCoDRXsy2TURH2x0wXr553i5JWV/D7cjgMFFb6nTlBZIp1jY6ONqV2NhoZmyGIV7Q43s776oFLouQz3MmWtsld/SIzZHm+T73ZLvIe8Uf/BbzShFo+UnnhCMdOmffTX0OErqMFe1EJDnaC7CcIA20evJc01H/7lKzaxWm5XA1nR05vhUQmAiFUtHiG06x41i1/oadYNU4AA0SAbNy5kPDAF5OwiTNa3x76crgDkh5JdPLrZdFCCH3OY4ZgCcePXcxsozqdT+iYqvgNTvVuosaBIZgwVmDKOx3NtfXvDZsbseIlmW7qywf8lBNeV7iOlm3aQSXc3v5VGWLpY9HPiacU4JQUR1wBmz03VIiv+TfOXxQ2IBpYrpH4HV0pYtzLxRbCn2OjWTqHXp5OzdS88bxuVewzi7iNWZusHYVseGVlYNtPnir7YL2essmfxd0wv24SXYo2sDvVSyHe0l1yJOh3ibugVpoAkSNydW80UI1ykI0curuk+c7DUSU5VnYSjqNDsYEI6ID7g/8P/Q49IBQyNztjdXUMcqevZFObVJqu4dd1acX5n5bGV/v5qC4yQEKGVoIsf5JgwJ4ZVLwC/SEAcxoZ7eQ3PbWEDJQEHQGarDcLlopCl0YMyjM3vSL7oNKwmYAC1zohmKC/iEXoBxMJ4rrGfb2H3iMXQmQlo6S9w+91D8rE3O/YcT/LYuWSoM6x7c8HUeWdj062C1qc9HekhJSaIBClRqAJ8gragQB4XCnHQ2E/U2hnH3D1NpZCQKEntC3hcqCa9lc/4i+oTym0yzhr5id/F6QRg6OwcKGqaNsQUljKxUmAIAHoFGRmaduX5ZVmElATHpdR5rxxc81Ag/1UR42i1oUOMGbE1nmRi8qTXZbu3lVxj5xjoIuXv516Sy+oWxbOuLtK0I7TBWnGRKK9x7G5bkuGsk9kSMFkhHS6FRUoSDATxHf3Ot+aQOhjD3fPLFhl8A8gdLIEXyPSiiKndoyzlPbMlI+J7Zl8wfNVg8FdrPFgZ1JwULyGJQGNzzhLPZ4XSmtNUv4rGsnN6x1x2Ey5qcIn3eGqRN69jLnUanggndrY+WjgAvhQuv2ieTdyjyW6nGjKBXC1hP31zjFGq3+EEYXme/JWpRN6k7wzk1+lAGLr72hrpEWTOJ3XbKxspjBEwLzeghJCD9YMpSD25boPE3mqBXsLIR2BHvgI6LuhMsWkSEzEZKU+wqaTlmNWH97nWwGgFdFKQEwwfrlI5mXJR9sdELHs2RYIEbWJvBcXtLoLgjcBNJEb9EB319GMIFaUXQmtQZs1eCY9I66IoaaG7+uZKgKgiQCre7/5Ur/9d4uqa5QVgdBNbboO9dSjpkGrUvbUrHITv2vcttS2Df7r/GdnsA4cH4cHVZgZaPm96j1kR8x+Q62eKGT1mhlVuB5eyuhSYrtfY3cUQlo7Nw+pQNBL7ceI4Wx9ht5L3hgbuMJuH3N2jEkB7G962hgFwX2OdPapx6unGScJW7C3vhvvWt7DkoHbB3FBGZfPt87ySNGTXZU4KM4UED3v8VuSQJeEoj0MAAHatC+uNtbBE0rtvpWGjpY9rzZaIHm1JEbGecaznh3lvbZlp5u3oiLaFcoAynspuXTtUm9gDHo1kCu3wJ6GARP2maMsE8l5RtXnHZAWEpNoMqdDz7Y6GLh390dDa8NxUl6bvVMz60bGg+femxE+IFx33mWqds7nJiVlrsI5zTX3FOzuo1jexCPPp0djGqZqZH1TJtwEg5MmtOfEujJGOPTfmofOiE/lWKNDuIEJI4D7g/0P/A/sRQriXVEWSYMgiwD1WUoFOedCMKTkKLjGk7ZSpdsghxAyrZYv8Xtc+7hiaz+jG/ogO+MVruYZmIS966Xqd8212uh62EdSDul2Y35OWx3kGmlAllDE0JhwehD2zY3R2AIinxiuRmWZCxSEJvgYUGhD7yWVewoRiJJCWzPYGG7aXduvNTWDogjg4pO/IKLKJ5ogZmul12T6R8CWCbztGoi2L6QCbpZzQ5LVnLM9EKRVfBCnE10hiz7jhzzH+SAKPRh1Swy91fsCAkd4N2kVhr4pvEUe89zpmFx7ze3+eWp8/iObpKb7roU9Qw+A5rOw5dMCddc3NrSLVgTPpsC126/cjBP5e+O8Qb0mbPH3BowsmBvU0X9WWy1ERY50k9Tf8EGwa0pMDRt0USo1xueN1NobSGhA1SsAwZSOFOg+WlXhDEvdQPcONotOBU+wTPf5Y2TnhCl/WlL5BU3qtqnOGtJWhrvKGn5mfGi5d7WCCpnJHiVI3uXqShuIwsl1XiammekltBEsOlEjS+W/IDUSt/QBqlXXrX8SbtLZdGH9RwdFH4rE7NxmZ010XccDQ2B01ZqFM5pEQpkO79g7nHjNLelCIdkxMbGdHfAjBsPrxu/9zat3GvCn6ytB4fyLpG99Ov93OfB2X+hzLLeW+jZ5Qrv7t015HsYLj9IUxOqjfCGr7prdGVUSKfUAUHE/Fp9WEiM8ysMs8xCn/Kg5leD+WXnAw0SsAuwh1cMLqB/Y7M5ZApPbu1vZGNMd9/eJ85gv9KuCEg4el8alS5QHP0ns8OtLA9wRDfzBLcA1rio2GnNYs/DoAvRvCmMfA/a7qAiomhTxQsi0/TpelN08BuOzJ8pBk/4GfYcaRHtFGSSoCMw7ZANj3etA98ZDn6lKDfC+R7JClTKRAOwtpmzL8N2HPnXXozSCJW6OPD9k9vKbb3hqRf3hZ/VIZ9huOb7HZlTx4JSoiML2KeGh7CfeBFGVPLVhE4caPyTJ8IvjmwAGAjIR3++5KYCCyU8G78G/VH/Weghm8a9bobOdJjtmIrb+yD6e8NKLWiM+yO3bDYJ1KkiHZnb7ytQoFUUlSp3NM4GrkuMsKbLv5POo1NYcT0biB73jrXQYIOlvvGDoZnCx8SM3b2BH215NbRJZjrR/mmzk/9AKZij0MpEPNI/tsU+/zA0ZIbpNzf9xCoXF6or6+N4AF3gxZMtmDecrA6wlW/grs+oOy1lIfSVsfv75riMC2CxxBaEgwdikSJDnXpZHfsE=","2"
"","","","","","survey-text","20","58823","0.0-20.0","qcq4wxaqbnzo1hx","conditionC","3233","","","{""Q0"":""pp""}",""
