"success","timeout","failed_images","failed_audio","failed_video","trial_type","trial_index","time_elapsed","internal_node_id","subject","condition","rt","device_id","stimulus","response","estimated_stimulus_onset","audio_url"
"true","false","[]","[]","[]","preload","0","42","0.0-0.0","5awf6xa5k2k8bjz","conditionB","","","","","",""
"true","","","","","fullscreen","1","13308","0.0-1.0","5awf6xa5k2k8bjz","conditionB","12260","","","","",""
"","","","","","initialize-microphone","2","17855","0.0-2.0","5awf6xa5k2k8bjz","conditionB","","30dd22ab2b37206c966e6cc1697da94970f6bc28a96247bad18d1b2142137ac5","","","",""
"","","","","","image-button-response","3","19659","0.0-3.0","5awf6xa5k2k8bjz","conditionB","null","","[]","null","",""
"","","","","","image-button-response","4","24172","0.0-4.0","5awf6xa5k2k8bjz","conditionB","null","","[""images/celebrities/1.png""]","null","",""
"","","","","","image-button-response","5","26145","0.0-5.0","5awf6xa5k2k8bjz","conditionB","1972","","[]","0","",""
"","","","","","image-button-response","6","27958","0.0-6.0","5awf6xa5k2k8bjz","conditionB","null","","[]","null","",""
"","","","","","image-button-response","7","29770","0.0-7.0","5awf6xa5k2k8bjz","conditionB","null","","[]","null","",""
"","","","","","image-button-response","8","34275","0.0-8.0","5awf6xa5k2k8bjz","conditionB","null","","[""images/celebrities/3.png""]","null","",""
"","","","","","image-button-response","9","35198","0.0-9.0","5awf6xa5k2k8bjz","conditionB","921","","[]","4","",""
"","","","","","image-button-response","10","37005","0.0-10.0","5awf6xa5k2k8bjz","conditionB","null","","[]","null","",""
"","","","","","image-button-response","11","38818","0.0-11.0","5awf6xa5k2k8bjz","conditionB","null","","[]","null","",""
"","","","","","image-button-response","12","43320","0.0-12.0","5awf6xa5k2k8bjz","conditionB","null","","[""images/celebrities/5.png""]","null","",""
"","","","","","image-button-response","13","46035","0.0-13.0","5awf6xa5k2k8bjz","conditionB","null","","[]","null","",""
"","","","","","image-button-response","14","47840","0.0-14.0","5awf6xa5k2k8bjz","conditionB","null","","[]","null","",""
"","","","","","image-button-response","15","49643","0.0-15.0","5awf6xa5k2k8bjz","conditionB","null","","[]","null","",""
"","","","","","image-button-response","16","54150","0.0-16.0","5awf6xa5k2k8bjz","conditionB","null","","[""images/celebrities/7.png""]","null","",""
"","","","","","image-button-response","17","55717","0.0-17.0","5awf6xa5k2k8bjz","conditionB","1566","","[]","4","",""
"","","","","","image-button-response","18","57527","0.0-18.0","5awf6xa5k2k8bjz","conditionB","null","","[]","null","",""
"","","","","","html-audio-response","19","123585","0.0-19.0","5awf6xa5k2k8bjz","conditionB","1582","","
        <p>Please sing the first few seconds of a song and click the button when you are done.</p>","GkXfo59ChoEBQveBAULygQRC84EIQoKEd2VibUKHgQRChYECGFOAZwH/////////FUmpZpkq17GDD0JATYCGQ2hyb21lV0GGQ2hyb21lFlSua7+uvdeBAXPFh0K3Z37IJZ2DgQKGhkFfT1BVU2Oik09wdXNIZWFkAQEAAIC7AAAAAADhjbWERzuAAJ+BAWJkgSAfQ7Z1Af/////////ngQCjRD2BAACA+4P9O/8KeJH7MrCdqnR4jL5PYEt+r8EZ+i/doKZmY6/TbZLNZvWyFslxXfW/MezKMgbm9RbKaMVq4ll0DQTqLVEZzhcS8k0hSao1hSgtZyeMOznCf2URZquiqJME4yrajsYjFkz9HWv3h74UEry4rMoVpDNXlbLKwjsySuHEQqWINSsV4Y3606jFAH7NI2HqplXK5Zn5/xx2VMqYpPAAw2pTZEEDGouQIT1mHI5wKtCkN9YBv40vjXYe3E0jng5VRFTAgrJifyoNLOLlYMIhtrzRs47418m1zsHd+whlkV8/p2SSTz9C1Gf04AAAAAAAAAAAAQqgLThAFIFDv8EiSGRhJ1Z6hvgcwwhNVuFCDhxNZgsfYoyZDUEyT1gaYjVOhsBMifNx2KXZPM2BzUHIy4qfScrIVIBe0E8yIs5+2n0aPtT56XZurft40s53s9Momz74XR1NEoiAwWA/Y6RdSTClvfTt5fbpFYjeh1Owetm3pbd4kTwrp7pGRN7tHXBYOz2P17XzBC7FalmdiCmuThlWg5tGXyvwjJAV4wVLvwRSTkMKJJgAzWr/UbOvDPYPCLeYexms24nrHZVzM9pR+V8s9qzHsFWrnkrYH34+TqIiEX/5qwdrmYwvTc9G82cKMd1rTiQrE0pO6JSP71nVW3CPLZ6hbb11qQecrnn15Qb6CC0E8QZ/+zEqKbEpKmig+xy5Cq8vmRUtXlEfIMdrLN9xgWb2vCN+st5vhPxXxwILq+/uOt5Rfc44CYK2nWBwHfDgy5eJd2jOVQaFuS6qnVf4GeiWnJGVW7rgr9V7IgbVzIQgARTqfMkB8JFbLgwU6SY4K9P7gdPO/3ihHqLVWBLHLnnGupOakk8lC21Zpu3bb2l79RLZvfihXS0zYQdEtyAXC7DO/2gl6KbNjFZx9DslIjw6yeVmx60Zuh1VBJoeda9LeFh7BCo/qh3Pe0hP/amDvL8MOTtG+oMeoDwwSz3xUTSR4MnlcSbRE1+vXx1OAxv5yg8of2mmCbGJi+gLia6g+0iDcgFyX4tYOljM0+Q/svjbnUKTiOqwygYfVhccGwCBVwEKDa+shNvbWQMSnN97QLSGUroiOHiD71QYEG/dG2JSuk7m5j4eT9DAJyrDoQCvBB7/Mo+06+NbewIbioGTPIxZQs/nEXNiXIdDIy6OgPCXujalfdzq2iq/5wW3hp0ZUEziiYAsckM8cmxMPPda2yldD+faKZZbQRhJJCIN2nxppGNnyhUoROYnGRZ3bxWhRaaLjJDorICx+EuvE/8MykNBGC0Jut+960PMzhkJ2SZASXYF+GPDIkI3QqLkRtBgcxQ+zgobwkQKgg7MhbKdABYfDql+5SFMXuAvlLmWcE+MUqRd+XEXsY5/57ZoD831QQFTDanC8lzgrZjfu3RT/F+It9eFxKt7IWM8sO72FDextRxyxaNDf4EAPID7g/0K/QvvnUEztpyyw5XiButsZYNupcC7khIbSR6BMJbGtsGL4hJROVHdBexC6M2SYpuN1HwJp2U10d7xXuvNz9ZO+Knj+bd0xjT1I2Yc0WM7LQdmvdvP35F7xOW0VLd2YslaUXN2KXf7eXltOR1NLdTX/5l5lfovVcEbQgQwfdfwsePQu2lt3tz3lugwil5gh7BiC6hKf91mfgt4w66uxM47qZS2WULDFwif041OFMu63BOWWPhrKlDdnqcHeMSlQYk4tk+XzhyimT15tDazovZKYxQ+djtaSUKtlFGW+Gy3Yalj6mwNNxvcw6NLT0K9KssvBIsCh19ZmKGgdJjWsP4aPYTemOeQv59X9KveAVTnxQJaaFJfVPGTckwx1rL36rWTI8bO30qilfGVJ4YM5f6eNa02Sp0hiNjsEWWGRKIFXn1Hvw9QSGkiQahEc5QGghFJOX00kbiZv99PXZXDK0cT3mCZfVTUs5p2yKrtq6p+3RX2Y3q/BpYXVFOjt6E14yAu1F1CgHtVTiN3JdccJFBSYuyB6fTXYlT1tBnegxlPzCSLl37qlqC2uyAQVRjSQlzFxtZYpIkaOBdRUzfNoOGZJYNaGMBAHHs0D73woAH/ZItyj9husRKwbpYokbuoiSdCbc3/iaX8yvWkWPLfTt9gwWyrNKXZg349UCnaLH1jmUW392JQiRYGfwny6Wv/DSwMKFsBKC+w5e4orhJXpV9w+WAZwEsdF/NA7d6qJzTDkU1LmQbNYfi8UbOV18G/ggenqnRlF40x0htWsMmTh+1ij0J+9r6kHhOl0Mukud0ZsJi+AfUA5fMIUXuWpyaXIcN9BYJfRxWhXwm8+ajgyDacO7Wbnwlj1mtWVgPAssGGS2Smv0Bb4OTPCijs5h+SH8iq1GgPRlO0nGS6GERKDS22OPecLmklbsnFdvbQH9/Yrwph3FPSfD4yvlCn5MbUa/1CsGW/NJyz5UnMcBmVyDVO8Lq6niYZ+9b0Y1pmHDqV7ybUB7YBZ9yo1rFrDaW7EmEB/dQ4KSwqvJSTStvCJrtcFPfBKVyHd9Cn+59H+PMbMa9tAZI91aHJa8LOMjpyYEMKugip0qXSL98W9Uk/Xg2/QYL80+A+u2hH+BV5dR+Pspz12KDUwaCd6FEG4R+Vm23ISzJMsUSl2G6g14bWw26klmj+qlODTgmjQ6KBAHiA+4P8C/wNQ5R4/I9EQ41gFGAKc+T5q50KJT4/hicKEJFkRa2EqpmGkIissy/eQJnwvlhT5pnD4J3TIc/LukAtjSnZJBi9+ByiAZX7GX7cumA041oJkK/PVibdy5vI5BS7K0mtFhCOjfDPakXmXjDQS+rpdpZfcdNuGWA1CrYOEiFcezCKK5UKRURZ5OjjOEwk/O6OsuXZvCXzW7H8pZwc97vznUVsdKamE/f+oXRNLYyEbecaY2lDrKkSclp1ZwMpjEnSaZpO9en3gu0zkCbeo6hLtW7SEJr08to2IgrWZOeDpW3U7WXb9vQKWiBOrzqKPZ/SzhxfjU7ZXag8TI/Mw2XhBHtigJUcH8csuAHFqkuH807N1zgt2w/mPhy+xyUE/T04Mk/7UFiyqT6JdwtCkcdjUbpMzimp1xL2VhmuhXEybiFUmu1a0galXeytwP+lxSSTQ/6gDszbM26T07tlJbkuGghEba86fwv14E3es+vDakTcwodm/PaMZVdCvUtNrAw21utEBZ59eJNQzGewWqQZEJzbQuCW0Zw5ozx4n5wXK9LxflSd+paoAufHGrqLwbccnyDoRyJ0OgIeg+QLUPs/LbkfM/qBIEwwIbmEVv2/xj14eGuvLOExXuEx1klCTKJpf6TzBeyQ5xACzMhgrAv/cVEid+YhjvYi2j5JMm89ZbBKEndSf/zT7rJwRIgWmX/8/0eantg6s+VntWBKlD9ig2G0WT8Jl9zWkY4kVxZz1BURLXZh3NzOzejR170aIsdGlSS/702VhlvpqZjJWuqLshV/pjqSZri2fFuL78lftuqHf2WHdLN+P7dHAT8xpQs5np5gQBbNbyAaHwJ2BJ+d8RQ9e4ONQyjdktuyk5y0MAscrctsAxl9Eh/Z7/k3FE9kedkib1fbNELEhP8uMx/apMhANvQzsOFqslWsT7Gf/h0G6eJU8+Fy2RDAY1NgTwdKesevWgXmbY3beq+ETM6tQxO3egAFdbe6q1E4h4ZAk1+VwuQk7eT8AQu8zJKbTZn+f+7n8M69bKVlmdERCFnI9hsxJkE5DpP3Mc7/i3TXb1/hT7rjhhNFmv6MpdjEWFVA7/nwFiAmrrq2qWwyHpesw9bJ0i45/rlzZRC/7FAwI+bMMkDufluKqWHzPBdjh3VAanaDqhcCAmSsLd75iUAb1mJ79fNYfihFmKiBYG8oXRHrByhqv0WepAjeM4ooydM6MwFrSo4uC2lXQpajQ8aBALSA+wNDlBcIN/y+zh2IqQTzsKev8HDkWHYKlJPNJAM9pbDo0DYDsl6SNyWq/xfQozdLMcGAAhUl/Io3zdMEvOHL1/5z8/eFxTA90lfbJcQdahyKfL0WHqKMbt02zeaOHIbd2wnTATJ0s1RtkCIeKlzEikVCR0qr00fCH2lLGe8IlJi8dH6G22XWt++wWtUcuzHfXd3g89TVZIoNjDjJOSpVRmwqkzWEEijamannopbuVP+7isY1i48SIqXKWIf53SgUcg7eZtx5dBIxEzmzldJ39A1bsDBovk6tExWh7Lr6MLvEljsuJPYSVvHfeiQUDp7qVyZwuDN9hJLNHwKf/e9Dhoy1XK9Fqj4OErhkLyDa5+kjVmFWzl9vC2x92uxROu5NC3MJdnnoQ2Pn1szX76Pm6ViLrn1DzLHEUXGQkI8RqZyL1j2Sy3rzEf6+/XiXjrR0q/133nXOjMJouapgoFDUqQEZGlmRqeOrwejkrN1ZRPeMM5gRcl72FBuXVZy2DxI82leEhNEm1Ypk5/VCcgr9NyZdc0hV88BNbSKIw6zYjkXi/esdh7OM7DABVvdeZnt/wCuRw3YQc12uAVvoCkPDAB60UNR3aau8AAb16HWiouwFScEB8bgoX8n1UvVc4OMvB9vj/N7kqzkemIxW0hm8LhocSjl26hRlK423jXye9T+uweiMsJNvFz26XOjp56eKb7B57By82l3GiPOSxoL7saGf3KXPNyQ/M3FIFkq6RTeMYTcOsD0Y5hbmkWDbZdhAuPHOlNotKNIL+KpWClCSfTGEpJaeAm/CDlwagAoC/1TPUqEH8PsCWfKvo+m70iad7v8x2ADwWR6YZP8TqwhnUgV7QqpIB1jyAn3sdb3lf1nbmDLcsKIiZpJRVtkUPaJ1B87Z2pKI7FcxpAZAjT5Ut4P/7L+cAvVq3o/KsR3X6Qz6vwljHIjg727v6wKnrIxBp5zcPd6hWytr3H8OicawYpvD3n9PJsPpUh9eOF/6fCflHDpF4I+T1wcDnBaflkOGB+sz7/uO20XT4WgaiUdyqbuyC7+sgXVbpARyvzLVEDhKscgSKtXHcyQbLIgRBx5GhoqUZxpqPL77n6PMSpgGZqJfd/XlasyN3XcZ0faPuRZ7J8ZOJr67SWvZX73C5crt8QOoz6rWXuzRNTPC4dHY26qFWOKuytHPiX4Ag+yCpKS1WXetFuuiVoM6jFb/P9xNojDXsL7Vd8tiLAycC9CpnHFfTnzIxKQ7ENLZx4IbncqbQKp9QguIdXisniyaXPcNe4ejQ8aBAPCA+wPyRnAz55yb14uq/5ufQcFI+EuTTVYg+vpoZcw/K0PsQrNdu4+qVQvjV2EmwZoVhxmM7DKJ6ssKpaJDorcXbWHal/fwT+Zj+2VyRPx+b3Ouvvoxd/ZIctrRBxFfTRGl+TVXU1u96ma7WwrCLYIW8tQK2Je6vxQu6X83kMI3Cj8/IfGCitpND7ko8AbD+FJZPDpJo+KsYzVKXBzqftuQfV11+r8QtIgHzHrtio+sJOpOWO39CkerdEH1XYL22fbDCtV0YYiId3fQeGD+WUHpEbaR/xTf51Wm2dxyklPR6cdhHTkOiqbewvIErmIbVSa1TER5OhXvCynIbaEqwAr5tk228WB7Rn9aM74BFop5gJCAqJo0S3LDr9NufO4qe0rwx7NaNs8UF26PVA8o2P0XKGh4h9I0VWnLA1tLRPdjZFhyl/AyF6ixdXBKGo1T93zmipBk2KXWzl7OZB0a5ls+N0SsZD99pRAFBhh16OhgLYESbBL5NeLl0epte+RIwGilt7qig2UTU4OgLBKHpqt4hPWr/EzIJmhn3lHnAx1bg13psjn1+GAYiL2dYX3k3MCqCI7qk8CxdsHrwUHOzExLa3cpBrgEXQNLl6/B8c4W0gkcqAxUlb/Muj46VCwfykUQoytI2KE+80UwiT8SXDR5bmSKxBgOeApKuRpE2gTHZ7rp4b0OdRFNurRHjJDpxewDAD5kae6RtouUA+hB0FgT8ouL3Cc+uyRkTaYEe27BqvmOpQQOeHYaylzjCUABOYiZiKPKPxxFPXXntLiYTRqyb1xR2x0/c71Njloj5VIQPg35pyXmuE0E5cyneUK0JV/Ee3kZCRV+9/Mg8PrWjyT4xOKK76EVYnCGO7Rs9mTYamjM4UWoGTQc3M+eeBqGIrZ5OPGuk80C+9C2ldL/BAfkYq5DzKaxOEwq+lUbuDHM0J9jaP9NAlRyRLzmeRemXtEBOgf5olXsY2GNSrGG+BFi3j4GF4Jf/kLHoYX34WwzvbSoTlipeiMydTuaAcP9vztHZ4l5I7GHhPv8PxAHHCODr/HTLK7yFzmbm765Zlchv1aWyp36d9koj/hQCeuWCdvMsaSWdvLB+801+WVm7Zu9pDcS6U1KWL/FbGMkl/L615npXPht2CwoTSI/ZYn2xBJRinvcXjijX3iFIIi6S7C3Ev1gXecSEH0VzsKHZInu6t6o/aVmBYF2Dqje58x1u45fvEW8zF9WrttppptyhU8Hq+8o2NEA3RssjIGFZqZy/gYokE4JNYEyIr+mx5+XKg8KMoWjQ8aBASyA+wPxmFkMefukOp/vsoIGfEa5zcksZjbITXBJnsLe9KtC1X1fIOpDjqg4PKZtrEbdfpiC21XLQV0I41WwlnfMp1rJ/zHbX/5rhMBDEjNoCTJ+N+o9HW9FaTHiWtYdiZ7EPhBE+rYNtC/tTxuz3tvxGyu/+737Urk0H8ptry2b4Xzba9i57Hglx+QdL2o1FlapJyVtZK7Sxw1Vet1Ut0T2B6JIKGkGbnjTP9nl1iHnr+fHEkyjDbqJBASLod+iEjZQ/ubw6ftlbuObEWI6hBQIGqMwDK8ie7r+Cjk4GBQxB0DFWMp0hOdaWJC9M0gF44PeidrTKMvtk3yefO4azu6035lm+L1/5agUJ0g33+9JtTB1h1gJlUeAezT2F6Kn3NcTsfXPPR0JVluk9Zg8IIkW+p59YS0rQOcJ/Wo4gtFoYL7yj1LDGpstFhrDrZEN9C9MwOHJeenVPNw2uhT/vgb57H+7Qn65IZ/j9ar8ZxVLUKF/l9nXKkZ3FG+5BWPHB2mF3bHMkXD7upCKuktEhkmo5h0qkOgv8/dQVff5qx8sSpOCRfXv6Fj3hOt8KLrGMpI7ezcgM8//19+ZzphQAa5Mr53iy49Sy/1xN9OjUbNoOkVE/0IDiqaoVLIOgG518I2KDRXCxLHoKVHzCEPNnWgSs4HDc67toabdkUSTdfoJRTJwHdc2bIKy6qaAV+VJ8EFnnTnQ7mV1TQHUDkaE9soYqtcoWIbYOTV9pM7EEMGHCzssVlkN60GQegztxYeW312uals0bI2CT+45DmtKAacpd9dUFr17t+uIh7Lziisf2AOGw260tj03HmW4pS4dUjLzp+waKKE9wbRO/DKl5X2Q57lV76CjoVLLqjjubNozaJUl2J8Mrx0Di44nSvUfGvGhKNrXSugN9Y9lHvr6Cm2/Rsq74NwB1ctBQPn0FRc70pL5tGRdafnk+vHVfi57+3v/1Fp3GYQfX62rHb+5EHuvCUFUX1aX7zF3ZECgO2PofacexUX+uy5g7ApeZLfZHTl5WTD5ER1x54GC5P/unfGPUrLAMSy9ij4mksQ4B7aTW0h/QnKyLwDpd+xgGnG4jhnzkvthVSJ9ioVU3Ix7n3vQMtIaTL5BFthyYGpObqSn3IXaYcUrwdU6FzN1PluyYNkJ+RctZ2RioO6diDnVnaOyOran6xY/yoCmEwyE0F+a5+/VIyZZCoFhUl8bbReSD7EL0B9KiZ+xti1MqNGXR2iJIQoFVqSEbNc8KZXFya8+0bVdU+RqgH4QxL9RFdXtgRgL1I2jQ8aBAWiA+wPvu/ZHmxI4+OwHmMmo4mMCPwlpmr+aWNHVGR1P7ewX+jxYFg0vXxbqNTz1KtexOWcFFGApyr3VlJ8Q0ykTRK6UyCsQMQuoN6sCcNFGUVoa4070gZSM6WuenQWw9dYjMXAHIJaE6g+B7v7MPiymOT7qzepAyV0hLX8NG9YIM0fNQly7gB3QTRnagu6QW9KiO9NFvjRPO9qwq41zw2200sqmMaUaG46yPwYzK0NSmWI6WOdaalIbZ0/ogNFTRwU2PlrFBLAPxcv1Syg6Jj0UFT5ik4A/TwhsLCCLGww7j2/fXAVmHLpOQr/6IVkl4U/7+3EOPr17HzlJMkxoeqeEFJdmHnEkbDjvJWyNRgg8+UIEa+KhhWQyWCC0Knz7CcH8o2Dmtg/IgAbkgO/lZCN2AFK7ahunZUbDHzLOPupV2LJEl/GYD/oGNpWeaP2/IXzekVDTcZJ941K7eIemaLbE/u+ur5U5DCznpqDgyk40QA5bz3FjYuDlJcAUbJbG8M/xPS9cXCoxdU2wjySKrqg7bMm+TZh/3aJNPy/8GP/PB0dhi2T+/29kk68AgXNYCL8KxRki6n6ygM0LgCIcVk83aTzeCntsIXPfyza9urWsbkNd0kNtVCOwCQMG/yTjE+IsE5PxHe7SoTl8DPTpHtredApdwTredmgcwEAlLx7o79MA8HHwhueRPkK6RKTDGhLf3y9eWsahpzfhwIrDdgur08xzlkArFz2uoxggIqDUYnUkOMj9bV1Sxc1b6g2diVj4BKIXm1/ufUsjNYMUl/s9seL9vDbEYpHp5wXQzfe2vp8egprNAUjxBzknOaUWg1N5JHt0R1Io807/UiFAm05rNUSPQpxxznTA94mvbwiPepfhdSQJMmblyfOU8pCuAmBA2sNvZ9rN/gR1rfmGz6o4nmiZOOZZqmOjv0oxeg0rOTkrr9tm7PtxKRysqGgroblkKOzZlsdJjiO29nPp0CoXJxBit+OxMNhVz8kF44MqdBIN8Q7njBBLNCZRexlcvEHdmDUbIj9f160GsUaSZRYPKtty7UMVy3ulNtxNnFsLFk7JhJTE50nhmoyxKjIin43y0BIkJevfSc7cS4u+rN5qemUeBW/nuvtwW/vi7jJ8I54W86VHCdxiMbde0OpU60WP7Sg2lgWA4/h96cCcGes+KBlsn1YhPBpcb62dQQSyFFMRPGczmR/Hq6Mt/9Ammc8FzTFiwfKywPnDc/eRI3Hp12+CRVb9FFrh9izI9BCmafUJN1ODUq2OFkynVQsVM62cBiijQ8aBAaSA+wM9kqfzTnVRI95Zj8ASvCVls3hMiO0JBTVYrPI3/7IcVzE5UMcou4ON+h2LlMLqs9WFFOKSsE55ilysevNbE3AqKbh0x1BjJuN541pz7ltzjGUw96irWZZLNoBo3ueod3RQX7Z77nGSQnYZ41JVqYCmJ/afUqjALp1RdexKgGqFJmBkXreJZ7uIO16PNO7H3FYC4Uta4yw6C6ru9o8XfhpO8PtJ0pKYKnHTeja7EzUBw94dJe6DLrqAftb6zS9BGuUDPKld8EB6sQiipo8HqunVBwH1xOi4tfSh7yiXz04pvCweRr1I7x1/N7UGmjBEJP+94s5eTepXlTtgCa44dvGmcpJhnvHx0VpvDz7nby2SlKu5VsFRH6BHLWTP6IZbASs+1KA97Y0O8sP8MVgOVD8TZ2VzOOvJXk9uvB7t41dZ/fGWG4YvzCbqGnCQz0D0eDMpuvsqjpbAfFogaTF/BEbIgqQZtxnPAodFv7Vz1Bkxc0/t11sh0udzLozS+YyUT+GYbpjgEvhURB7cpg7Toi0PXlu8PGmpfOcZ2G3Jt52S9AqbwvYfXGhPkq5mSWPX4ah8sKzHoq5KExn7DDI7xrWTDb5Y4ndgumSLVzx+M342mRxbVOe5ygYMxBdFsHshpZ0/ey0HUWZsvHuycEhYbUkKACuUR0olbRkCC0xqv8mvPQRKWRjO1bWth8E5YxlpSFprFZhbReROwAgNG7S1SF9aAY4+4iaO+SMoxwZ5U9tNiQqS+u6Cy7x2xxlwm0VLp/5hVJ5srWrV2pGOpD3JkVHXHYxlQK9BAApjCoWWM1Mjn27DAVFIrw9GfY7NmboONLQsTC7xsm5L8la+MwbCrUKHQrXp2F/hFa+TXMraAxuam/bCh0Gg430BvTeIeP5J/QZ19oocJ/LofISZDDGi30ll2c+feOu22Oamnh10k023W0xgQWdM8hVWyU2qlinNqH70Kng83rcBevhQ2JhcVR0/cZZndN/j2yFVZ/VG+9euMXCxrAenkmn9mf/WIS1QkHOj8qnpdgBUFt7fa8KVceCd41hW3U9jOMVcgE1xzlM/g/mJTmiXFOT5jIKBFxcPDZZxmiSLDgEO5H+a5qVP3Ys9WtO3bx2BvUHlZyXIwBPgJe/0LxQmpjjwjPO4ir/h5nP5mHT2x1lSIjhRnHYDE0GGOWC7Dg7JQ4gjt30WYtFIS/Nvh6JlU4YjnAmE9sIK3kg1DaGVpILc7zDWxkT7fNTUR+oNJow7b4eolgqF5eW4gL/8E1r+PzxbUyTK3U1ruBqjQ8aBAeCA+wNSrr3jA253rCQuUuSif7ju/+VdLErFf5SFuTnIAVdSuGjcYUEA59jGveamcPI2YbwcEJdhg2lPGfn1+0k63PAuDXEvKzd1StOqQ4N729/dJ2zyrbDtUSuVztuwiD9yZYFi+X0oh2MUDV0lWsznc9eDkETiXXtJ8bo2i5pqgIjiwBVgpEsOzXmKbQsYBYYRkowx0Uyw/JplZv975pqnATePHuYLpOwsuakApClkH92gWGgPjOUU5hqGEAjRcKOL190Jglca7/HwOK5/KO3R+QtgJkxwBwQoZNQ80lq/mfe5ntBOLzZPq6sqOIjnhllMceMBIKVzzdQogMkDm/uhG7OlJG0X/Vvhef1lUph0S8j6TmwfozZO5alX1IKl+mxTVUOJnfvxEpcyRa8g7ZksMOe2eplU1Kcb1S9bPVVzk6mKwO/Jd8sJN4IX/mnpVhGGMx6lASrT6NiEEXHu0GShkUTWnqE9/Zjt1jEMkhQq0/RrdWG+ZuLQz3HYYioJFkgNc7nFggOSOrPRJGqpJ/Y691cxUTkNK4hbsr9OwGgr+goyxBxh42JD43XPxGsE6XRKoQtucu5puUNPXWJVswm42npP99PCHuQzIvJwhNWfh8CLVINILmjow5WoAIwSzZZWBEX9LoNpRaSqc/1maKHIpcLQEs0gF0J1fQGyFIkIfkMvqzBe8W/CaVSdxQX441DdnFNzbJBsAI3lnmbFqQ9W0tdEW1QosHio1M4K3FDucUKPx46VrKyaaE4CqyhfwegHPswgWmJ3fyPqp1rFiGGPjphGwBgpYtr66/JyMArWADm49neYw9DRY6rIY7W579r2Upvv/6DoMnL/Ka0gj5S1DXSW8Ywh7nk6mnkIeOcSRiiIodOPqSFWd1aseFpRrrE41SNMRZxXMcUm+QesOlLBRlPF1CXfFn+QlPzi8Os9yzq0t165wUuFkGmt44V3V8CjTieaeIJa82Fv0RWp6EVxjevAx/Usta8knfZ5Jz6P28qaw5h70p3F+HJgkta3IMup9/nf39iFe5g0bC8rAyBZIIClELAi9Bnu+mx2wm28BicDO/cmu7PhGxjGSVn63NeGsGCrsg2HbiY3+FzlSFVL4BbY03xsm2Twz2EyC+8+8gGLWWFaqTQq00hHw4EW5i6eHLDwz0DdCeYz7YeLqsK9oO5H8HMJv1WTjnmC7X1Zveve0DoMlkGlS+xe8/3bhGw7RaVBnaOG1bKXNYb9IVhkxbwZ9xPf0zzgpclFKvU7i87eYhTAL190xwa0kxeez3wX5JSjQ8aBAhyA+wNCev5F999rdLpbGak9F1joHPdoMhyfmSeNSj5ee9hGAml73LYXZy2CBof6oLjcpz9clhcoDCzVxbV0TamrsXm4G/JU9QyU2yA1xJywWgeYoxNRKX6u+XLWAO0LbEMeVQb3pP2yXVDgRgRaUJFO+0ooXCI7pUVBj0ClMqX0l2cElG6Ubof7qbqyPhUzs3g/G+bJPJ0W30HLXIe33my/ckBNQYJcMMCiL5uFvwfMgr+3IkCnofU0R1uhEj0JyHeqW/JUpTO4QGIyLJpgWoVjxS3FMTXZlaf2c6wHLDLBa+RIvJloWqI1bLmzJZ4c4AdFUNJlT1wNdd3+g+iDQl/xMmXsVR4lu1rm1VnrvAy7xAtFHI9qbFyE5YRiikt94+gM5aSPj2jZjqxEtyCvzdtpM1nyzT5bY3JNME70muYMaVXgxxOHo/cr2BZYyKSS8YHlYWVQu2No8Nbi3bfxsUWifDCrPlKXpTjxLKZcsrJYxHb5Necqrvx1vBryFNztemeEcIbeStYb07dgEnFeQkySdzHlGCHyb8vqimVLxxv4fju3A3+uhD+sH+a7X7PdaEuP16+tVYCEhl/cylXuQKjhBOgxcKEPruKHjgufmHIz7HGFB+axqCqEn+6j/lhNxuu5gbTijLXp307+9flU0tjN0RZfcsil7z+daj196FaP9eQGKr43ZPCtwP4BwrPMhfstucukiw9oiQtvWJvFzTaOb5yEcqYfK1qe0nZuQoL6SjIQVC7Fk7LmZc+P+hgum6R1OB1haTRV5ja84vahp1P/cVX04Pl/jxhcd7xkTy0+h2nidLSHPwyNb2SZMjU72NEuZy0YfmI8TvLUYCDXHamk0YhhGqpnnucfSSDEJxqdE26a3ngwxLCsNblXeUbtzzhWdrql3xHLElxA7FxYN8Jf3tDjffCFXCoRHEBALM2E6HzPVNn23o+47RYBt6/5vBXwUpLcbVka/g8BpsrW/1YF681DgAocQKH9aEho/EwS5P/CnbJkoVaIZ7bWSZ80847pRZpD4OmInuleDiLLIVVngP4/AvLbKNPiaaC3AkVZ2vKF9Tmvht4E+tpXcywjLRqPIOITZFitEOks5zc7zkvNQBKZXFpUh1h4+phCE4CPrkpoUvAX3Sh2Oei8TMis4LtYG4wOGVhgcCb3PMUq4wL25kaJnq6u+R5XqZwV5nOVh7OAGL10oIJEjs5fJPwiCKGqztC+/djgLbmN8APU0ey2jlnT2ltiKOqxg3G502mdP9DiPY+13G6ZWOWB148zCpDcPXijQ8aBAliA+wNbVDxs4moB3Y3jhMYYcnHKRVE01NWS/r3SOdwd0pBCiOwrRvgD9X051awulhj4TmJNXvWuIpuhNrmUw9wN9EhkEf/D5zkdMKYNlCDpjQMKgZqwBaKp+o2aMkrToi/dqALv8aiykh9JgHfx/24zLeiV+fQ1C3YrghxxGWNFfTpgWikQWMm+aDit1hsQbDS9PAB8+wPTHnXvWzX/ZxJKeAi3v/MEYW2z49R3GWb3i7/eH407aQ4JpAaGePXPPBEzM6BiTjgh58CMIhaWrA8aPWlNwjRuwGfb8zviy83biCN8ctJwVIY/654xGYtYhk77XbEJpB/dfELMKbHA0g+RMPd6FbBAN9Kn1L4BGiGItNFMoXe5U8cF10VREjvEwVbqXrwrlxoaakn7e/YJLaMwo6DT4o1IjNDLRIaxvmgiCL8SxPGUhiAAzGVFV572rthOi7g5CmO7vmEo+fSMD+Qs/syEwZKPC/9O6lHAJEiJU97oWwlmt//u6skRxzbXET2rs96b8BP+4AocZ3UueqzxC6+BVPiM35D2wOJMO1hkWmmMRU2nGPHaLOqyfBLjO1gwuU+vDTJOPAlkmwe0kL5Y0YbAvLe4ugPK8I+7oa8iu5XEuQ9R0jmX7SPZtNhL8iBs7uuMqN2k9PIzCPeHMdQbqRF9OWWp/r/EpLwCtpKLlf0MJ/EW+JpWOxODgOnbK3QysHpyh3rUhubZlemnvRBU/eKo80OuVceJJHUJKlCpTSZH1Y6M7TZ94azrMyQ3IWbpFmIc4uTe5iLqzDzApN9N+RoocyDN9Bvr5avVn8o79CrSonLYHL6qjxlidvmZY0/VvXJUgDPfNCl7ZSMLy8T9emKU776PfYukfBRWyjUEuplH/pR/FpErNudCKAol/eO6pQcpqbNt9o80B5/3O2RQAGIHbOnpOzmq89Mx5krt3CImOZVPiDnuXrQOmmMDTSmaetw14ODn09Ks+9yvUV3V5Lw5gePZumc7Lt6SK8F2xFzD3J7Uoy8/7hMj1zIAAG5XdRIMnbEemxsqdig0at3ZMfhrBaPazgZrzaoE5m+F4ntCulqc6OQZryQLWZ2ZEqzvGZcyeQePfM0qsoBAuWSopy2Be/gOPM1q2NdTsSt1/P7fjsDwT9sPF32vZfGg/1b705eHSo7Y3fD6a/8qBcCxDB82CKRlEpZLdV3lJzawa8M/tUJFT/JDWk2bO180exlzecz9q4IwlvcxxVOHi6LRohg0fhbqu79OmF47nph3Hjq5f5K1V4y7xpwpZ1K5SRqnsoyjRBOBApSA+4P8EfwRU48W7A7R8TUKINijnzVVzghiqDoYVZn20if8R3iukS5io++Bobmea6LRcHir3D15gYgdq5SsBczFpZgB83bKkw0fGkVmwzsBY50MX8RhUhWMI94qyZR84w09KGY/M7T1Hyd0ED3TyvC0+eeKxBxuknW53w/Pllkj6ONO2RI3WGxtuYu1B0k6JWC1hUK+gkpQ5BWu2UQ10KDnwH3lBoOiaAZ/kenia0MhMRZ9eBVXaC3jELWvf88uId76BzL+Cwd/Wct41/M0i61cTHwV8FnSJkvHDspjedU+BpmHraFJt/YZ4i3aA03w0bAyQy8i8tNayWJC7/b0CrHprSgzyTbhTd4xBJtTu2ptFlzRZ4OfOljDzF5aKun+HUTmttxMbx7tdJuGujUVmKmmOZxqOrvl3AFGVcv7rBbfN1EV2Eeod/5C9WVjPxbKK+sBDRdjiwpuEeWeiB7nSCKHglLlYZHgRlqKvDrtGyvCtzbuMQq6jHaGtw5DIP5HC++ytF5S/99DcuHQjczc3l/7ceDF+mCheCj+T0Rf6SOI24RbxhztA2fUMafgurBzpGOiFUHEWH6Pf1dESRcjBw9ubQEiyCkDRwZLelvrziKxpvC8YGKtsSFhVD1TmNiorDsmGY8IhDqpdhlJwroC9n7+WHHHmQAjYgK1J4wZKFby20OztmOPt156fJZHihyocA5HJSiWrss2IMYOaN8yjBS2sTlVWKrYKay6q140xIlRZ8pC6crKchhxa6RD44GASDEtHvFNMFcZkMBZW2TnPixft0RWnkcCfR7w+aZFE90QCk5NHl7HN7wljXqjSGqHM9d4oE8Oqywasugf3/UOFWGRWzwZZF9fS3cR+CeJhfu2prrKpC6TvU0YhMvY4kZiRhvTQOJIPkLTbMOlMQq1Z4cHTMRy4NMCGgMQuZb9bbZwVG2/bfJuAocdYtZ5b3+cR7J5wMlXgnZdrQzXv5ohUwYnFo1YeBG24Oz2+0/k6CIO7qiCDLvDdT5/g9P25ScBbFdjS1EBP8jT5gj8s/n4pmhWO368pcX03lhShMh7HhmQmXDIStL1z7OfDLNdJBu7UCMC3qNhPd4JC0VpVPmf/ohRJ5zyRpQZ6lZAI3jF5tjoI9bZuEX1Ag0627WK/B8bSLXqjgWn1srJ3VtIRjoMjkDdRBAvYnB0WQm/goXLhaGqNv1PLGtdADRT9s08sq3V+1+x+0yPZ8z63YBYgcxOUbdHGgULiLMpWRohyyGzxApl9NyWwO+VVodOaOGd0T703noY2eA7Ybin058mvn9LcU4MtrgpddezgZStvSWnh17nGb28Q2IzyO8PWQN8qr5ylqfbsrMeH3e8fntSJp/MKWq6LPL+7Mab0nJojHdUyG+J4qNEwYEC0ID7g/1E/ht38cXzKqn2/Uu3kuGxb0RzLSQ47i5XpSXa2IQ/6jxpF/s7ZGHuLFD4gPRmstwnaNdwJ1dwPqopGWecaiTqktVyRIeYJ2K/6gs90ERAR2pMkPUtgJ5SB9JekihFyM6qcFTKpiSspAnTjPNNaWyap1N6EwheWLtJsOt3g22cGtocO8fodbSWhcZcOG5iWQG4BMDHAECMCxkbRZdLXGEQi5C6IUchysK1UFQGAAc+ACko6nvbKR0+5hs2txWelupglHPjAPLDlGvxBDL88Louyb4Z/UolWFP+E7HFds3Rurjes+T28+J0F+C4w/BLGHyVX+AbeNXQzQspxr/9ChGedya8Qb+ohZlTdgnLtb1m6SpQIJSn3sl7SEW6KWrws+eK3AlcQ/ybEtuxbZXrmb4U1ozPgFLaEWU904j/poXwsSVzSHeQApBSTIG7Z6Sir3+HiRiNI4JX/sBITSNQ3UJY9ys28ZXEJHm+TrY7tJmuwYWqjPVMKIHmz0D4hVdHFU5GQXpy+G7Jo96x0hEMBHZIBhNAdWyugG5ptC/uyHT7aLEMQlmiG9p1eWW8/q5j8kZo/5LauJVjpkg8qJBAPAAumzP9bSPtkAymjMvZ4oEL7/1SeGhdu7K9yYmojg7BP7jRsKHkmIevLl0uOnDx1WFDqQ4it2K0gV0JeiZ3Yyj90uGbJ6JpoBCZZPK0QVs3JdN669UIPttN1KLkhMAJwumZ1N5LbJQ/UZqfKuHrdDPfLJe4j5rmSC9TOcmiIrSFIZh03AWQBWP4haTByxxGiuwU+CxFB7AYUWOIh9LC58jzdrF4lO/lXw9ApKbvLqsNeJ1N+13y0bGXNCs091bI/tnOP2xU9MQuNc3UjpxhFFVQc5apVJ0mTVwzoVdWI87xzAwDMzq/My6S6N9i5eP5POByQZCTACl2uFlkn8JWAOkjLyItEMLB7x1+xY11qlAWsnzSqXld/fQh6Bypj5E9JLdmewmuUW26XM4BwO4KyEAjnKiwlND9ApYHS83WaLUUXhOrnYjye1Y/DAgeBReZ9QeSlsqX7S1TzGhvVGwFlHW8HWwSiXnEHlxup4ypj9GoeokdhUurH2spwp3KyKnWAPMdKehccZgLsVJDYZ+OtZeBs5jAosQ+/1W098/fEp/ZK5HN4JYuKtyTGrKwiBTrhKJS4L82fyj73JPKxHpoMORExgG7alWMBu2e4CiwwJEcm+Dh9mE6G6gAPz5MxLECDHEB0CC08qaSMockhcTE5fQX2s4iejaHY0bXSofeO0jdsGsmw14wtkUdMrRZE0T8KCtuRZ8pTyOUqfw85Vs8w7X1EUiDu2bpVCdmBKaoK35vUjgsWePB064f7ixyK1ChQ+E6KgwgK5yknc5qRRLf/cStyjJcoktiCU9XtkLe4ZGkc8T+OOoThrJJMaqjbKLKUWjrIqKTN+Uvmh+dOPYsnDs3c7oWEVROHLN3FDcyFYUq0UU1P2FzeXDinszRcPY/seNtT8emdBkgWQHVGPPfyBkuEX37nZThGkaMqZfViciAZlLxsbweKW4u2D9Tew3zPv3Yv8+iY6Mnyr7RPeh2MPZ6qdrsoD+WNoMcVrbEVjf4A6npMJGgzDvMz8Ozo0PGgQMMgPsDemQ0Lx0DhEBJGkgNZZuAFp+w4JIegn7gjg9ncaWJ1nxDZUyRby65fDzp3ULGfTADcIUbnCOiLG+usVWDz2e8L+OLeOKDT3AVSqQlG/u956yGagqqzwWI0nhFYU5YiPNOYrvD1s1A3oG6ZfaTjEgqgR0AfZzmCQ2rBoodC39xE6cZvFKQARQS0zc7nLNJAWH4twJPyA7RKR41AtzcCVKB7O/JMi/lRsq5sHlAKgaokK/A99Mu4r/bKHRLDMNv5oblePJU/o7IBeLOdghQZya50+XDB0jQHUy+YnQLn1QjGsWmZkuaeyk0vGv4/v+4RCw6kbThT0+dfCThnAyajIXQcDDVc3RGER96SZXqS6Glzj2zK2R3ifIySO5HwmBRP/OavSFC3HHkVGa1MhEmoF12ACRKyv2akFDeZEgIC6gVqvjfhlBCjec7kiFv2HKDNOKfTlcY8U3s0S62RDOWSCr8NGSeE3QdeS1msa71doSbQRM9NXstuxU8gJZQpfwRoj+37qfs//I8EpMVH8NZtdyUMGbKRwfM32EB1NIWepkeQ9POBZJEIePQyXkb2qFB9vb+SCupDz9yELWG1JBRzxKnuP0LzoL+7f2RrCK+kX+hLzVYBtryfHpHBih7H1uGNgBL0sokT/almlTxkgLE0o4n5dfLSHTGxeHJqLmBGEx8n+Osv4/8f8C5Egh4zb4VzebwIUHMDHW3E/uBahgROWY1EJAJLYW8JcE530cNPMTqiufgV6bxqljpfN2IgedFqumlzCKCQ3cgR1HnAjxPEJnSkkI1Hec6XBCUEaN+zNiwVzYtA+jz1W3Y7H6MhdwTqVBRzFn2lAPN9ULulkdG4FeS49+Rvv/KbVbfzs0REedhDlIQqGN4+mOrTbY2j5OhZlS/3PqKQd+fEuJmYQ7vnhT02CRJozOR1Lnxj5ZTm3HrQ/ssvS1XYqhxqaj2RmwpE4I0463Vw98IYcPasEOVsWRM+DsirdFLHz9MJkWC1d3S0bC6L/IjDh3hXZxpX1vMNiYW+Gf2/tV/q2lZY2WsZZOqkx6AUUnK8bFUgFd/9O3ia0zxK9ZvAMxyDkvLXXGGZHZhn7SEBEIUuNiFhX2vJOfJ1rtkW5cVYDdHv/87qYTqkYOF44BL3gcJ//ORfampfrrmXLFdIygyXbbFSx6ueDLw7043pPbPg/VN0LHricercIEYFdvplkH6n7ju+9rUj93QyDob7TKNCRMU2S9Z8mczVj+hXxm6TdzPncNjBvS9QbK5vj6Xbh5R15FfSPne8qLWo0PGgQNIgPsD34ZWfXJVyP+plG0Ohx+WJ1AWxuegUxZ2KrhPnCvrwYLAgxbuAXqFb2mMdTBiRFf7K+qbXaMlRanEYevxpfVVDolQO6XVborwtcqvuyIwhtNpu6giBVRhGXR3lJP46Wy2SROXAs6Kisr+frJFFWHR9ktcgdDvzDDRebmCIiQmTNWylYCMOnhQ4G0S1QHlZOQqPhfxgr7vGpVgtU6/ynW8mAFQck3rhmmq+X8UmZNUAZWSlmrXw4SNZh7pCRFPrST8y4bHVk/BhvOXOPJhElTOK0xbngRQ8eCJCsa24vH0FHvCD2E5Tphzdoe5+rduBGZNxHlDqn/aZz9mBC7SS4orLgsMbKijVm83IJ5MaqFSoE7whnH0srDOJPxYaCD7b0X4Lqgo5ZoAvGSZjozj2YP/r4thP/SDVv/cV+yRBSgKFNffjx7IdbokFY0cclssPc9lIxcDLqUTEJiLveMzbzycHXWR2vbkEt0SawsLJ26rTZzFBpZpBIwoQvXh4mRGplrGc8lYXNyfL3ke3pN8kVq0NpgqTbBtB1Y41AdQMMT8RaSCI5ZE1HDR0TgsG6Njkqw8VxkrL5uq5ft+OOnSbXeKQZvr5NbTlLIQXk6OWhlxyopWucmw+HZ5z3kRFytamDm9yEanDBPQXhAgJ2bQNLCFO1yftz9jkluJy4ER0AwHNzbkKF+TpnNMlrJJ0PCqqQ5KLmrNtqWl1UqQJwmVZg0XkzaQGRWFfd+8sy9gcvu3UUGjnZbyto4Wkhis9D0FXSrXwnAGT4mp3TKttWvMgFOtmPWwwu6g2BMOj0L22U2YwN5SJ9LDqxA08+ptwZVzQhS1ID5I0B69ZsSB2a8Ft7RE1jXEBWuTSUkjtrW9O/dTdyuzWP8Lldi3o6mPcTc78PG6flXh4ivbK+YzxfvxGjBgeQKv4h1WYBaFZSlwTW+LVFIjbFWkTb9RcCdNbAZGTF3YVgubgsoNWwoAXKpGwZJvsxaA/8vyveRp4Mmvnue2xDNXtQm6JRtk9mG3bkf8Rv6m3G48q4w7q8WJLnH70DIsI5CLIx0zCT1edQm/tNK9pjQX2gkEw0ii6SVmogrflfoOm5moIpTH415C9b8KuCSPwKYGyp15RAnobg8U/r593qXvlU0IfHIooGl/u/wb2Wo0juuAhAsQTNjsd/LyXF1ZB3WjwWkCazzwtEoCYwiTs7OlWz00yQufV5D29tOYonrUFjCIVIapae3Z+X5zupaG0lfbRbqPk9kZKXQpBfMonIVLzeSjaQ+f/QKAI4hZUulUo0PKgQODgPuD/Av8EyucMM52RNqPlexMWM9W2rfHNwsCauYFwTkukwFRsr1FE1O13aYjnz/99bBIpiykDVXzlfuDpGwvHEYT+fhgiWFCcuwhZRvpbCYgCqvQ1P/PN7JBtxCghthr6JHCnduc7fN62tIdjStNTB5LFtEAIEgdmO3oX6tgKQVaYvB6hldNcszM7Y/rctx/wmBthXydztgHkP2tbuBssaAl5nUAhZS6qJAWEIMuwLGkZE/b+LQWOIlqyefVhx+CYkCxrDNZo8bGdP1pdbhtDQn/8W9nsnQ8NQiBIOmVNbRXQsNG7B/G7iKWTko66PEjiedxQY4Q1AiV7PgOGqiLm3bD7e3f8QDdgHH+FEwiCFx5vhotRgxucPQMG4LvL3nRkFWhlX7A1SmNc4yZQqH8KI0cPm3c0PyN1kiMxhCNejHTHt5cUCFMpQjBXT9zXz7yWTXOfMUzryzHkV99ToB7nI2uuzg8YCnH+awSbsb9f7nhJQ9jm5tU8UUgucqEWR+DhTgTnQ/LPXgQ0i/GNPeOgtwsJCMK9WHv9nNT0MeXG1tEVEmF6V97cZeQth6m0rMYahEeFF3Xted67f8LM55zHBQNFTwVAtKUhP1La4AnieT4dWC+REMfAhmBTYJRgHnX/PNgic25SAG6lSSFA+RQAkqHwgV9r100hlfGPLIQfZM9cmeSS5I8Dy9DN3rIq5DmzHhUlp24X2SvtDWdPBw3bLGNKHtzKQ8zekbqM97dVGcHFS9z6puakw6T92IGCVICNLRM7y0Av24UuALPINb3qksar7zLTQtTOvu0OVyyr/bLm3Hb6+BMEf3Ov7CsEp+5OOSt++eKLnoy+geKwwzf6CRZixU77/Smn7E1o3+qVjI5cjPV4LIxLQ/GpZHcjqBTaIVYomfqpxV/g7JbpPCYYPBEU4XhkD19xAgpoY9LSQ4DsltNMG31bhQw8wRUKXt+AgF2VRhlNas2lVPmEl9ANJgFudNefyrzkYSuBdeG6KoAcfR8PcJAOcS6+pot5rJHyngTpYrKn2KaVOW9MG/GO4V+Kx/W2E/VDfOjVj8LLEUpYcWgvpynzqnxgeABTrQc7cF7GfaSI1aVlfLTQxzqN8BGkLS53WqnWLPVwjz3IDSoyaimQmdn1HiwVJvjJFragZ11v2dUGdwASRXOzdltUgEv8dvtwfRadSFQAnjua7QhZDIxe6XIwLwe1+JT1DJ5IVQUBMPqrzguT1BRq24hd/v0q+xcs7Y44Z67sPM/9XU/XxUJg5HNZ3JnvBFiCy8Ieda6jWPuiqNDfIEDwID7g/0K/wo8yPg8HWx79i6PDk9pGNJ+ia5wVKq+yCoXby06hzKqe6I7OLtl0yn8xeJ1WLMJ1Oa/2F///7HvELI9UUNt9J2tenOCpoFo3xrvn+rIufZTqVyRRyTDU/L8QDv2+OvKotPFUgVN7ihv7ilu3kehfMxvjBsKG+gi/scMa9ujXKuEAsMsaMO4LWRVu8xgSlCynCWw9izmw7Cwl/URnt5I1q+XopP2XWSTXRgxnbv72TutL9rNjC8t4F0KbUaMmADRNWQIlfvJ7UgVywMpVsRMF7SEacqniST2glMiM+QyjAOr16n0zHjM7bvamh93z9fxM0QlYwEPF45NTahyEeu3iH/ZmGzGL/y9gHn0sz2kEEQK0wsDs/Ykn6h9zqRiHHCSPvGEhcjTR1MEH1ul7VMPV/CggOs0pd5sfMVcbmVuAM9WzD7A5PP9ewjEj4zmDtN3YoAxZFuLePmFWlR6zp+yBZkVC47RH49EEK2Y5f4CGYyvNQwyYW+CsBKWZe0JenbmVQbOmw4myQGjyIWfOHulF92KHCEF9u06ExNmCPHNGR76TdaQzwRs1vPBJJ/8v6xC0zn1N7luPnYOOu7VPEafa9ws9vKUwLM8gY629pnfEYuUjD8TBs+CwhpGJQn0x6XX9NE4KIkGtbq0ChVN2sfLPGnQukQYENMtG2xfjDIm8Vk86SJYHth7vhlTysdXGfQov4XBCQFqWkrpeb5RFkgYYDUODuB/kiJ0c9Ivld135XjZ+KBslxqYJ5jzb4k10ySuuDa2jm3ff8YNpdL24uZDF+rdyPVIdP5gCBOQv9kHnwfxhBgjHxf1omWxg1YAZXx0l371ID4r/JS3cettdB7cP5fAmJpSZqxwbmSuur4Du5LixJN1BY+OVUshVCKBINAKrc6KnqKRwt1S0cIRX7cXPDl0GQ8iUertU/zLKZGlmVXhcVvEcXBoqC6XTQ2rtOp/Yzyz7UQihakr4XxlIOq4GAOiDDEYcBunfAbS7tFpWAD4vEaYU6Mw66vjDOXHMjw3ZEza/NsDo4Z3JPGWMZnzN2ogHCxPxBPZeQ4nIx7IO0KG/mDw/e4GxBFimj3jinN6Ze4Tx2D04FnHs1fgA0MDKMcGk1GnFR7JzBbiO93N/7joNdrj1Bf9Yim4HF/iv1iFN+xtG2m3oGZRSFgWHTmadg3EvoWjQ3WBA/yA+4P/Cf8JEVYOfQ8KZ50WpfLUHnWK7RWf3fdD5C7AWaKf+5XUdIy9fQOiZfCi7jE51G2S6NChqPIIJZw3gfCs+P9Lur5rbLK0uxFR7vMGbVrArOxWGgojLX9FlwwCSAaSnplIMHbRtdEunATd88ohYHif+8MrU7FG2HVaux2d0fSc+ZUN+N3U4GN3WzNRUkhUntbO6RORCAdM4LpkvPECViQBKTqKtlL2qSyD4ee9wVl+nU8AXa5tFk7oK5osdLLUHSWQMi9xG1QI7oooqq+k0IYToutVkURj+AUY2N0zTLg2kWCj+le+ANFTugEp4QEDGmiipVjI9RsHf3MSm08mtxn6i+8qFQTD0Z6RTeWs9kn/orUuykW6t66Ec2z7uk0w9JC+RUefmE0ZVCPUoyU1+pRnL1gz7ZxBPA20mFtKNwfMcHmoTQ2F9+tlE61ydKl086a4dQvox/0hy+tye7Bw9RUjnZyH4/ErkO0OLZFkjAN1vqKalUyF5USExhJSEsphj7xQOCEiMZHrhWDEeeaQbn5l/5E1Wcjoy06X9ZBDu0w3HNdeDa61uDxRUX7w7E8cU68Mf79M/CCemojFvQAEKj6WImgaQkMJJAXeb+HWjxWMmhYNXUcU6WvBS1Xp9u0Y546BYmLepFM0cH2Tmo4d9LGnt1FUtWXWT4xDt8K/kHvkfKAXz+Gs12+UrR8Eqc9VOLc1ohdy4YTpxLY9kJHzO3GQThw3EnSONR8lGP5Lr76VAs48dwZl7LwbDejyfieLBbkSFa4rNVekK+2fUuv9LMgAtY2rwmLVRyfvtjMnJx4K8ysjeYxNfbr4sueEh6YMW8ITUQ9O7kTnaxGCZ72QARmaNEpESYMDBPAFojiAfzH2DYFCRKsaxzlKCDFEfAtXJaYNiOTMddeC0ZtBvWC0TEc/I1VuhK/tKOcgWr6zXpBs5RLOojjCM4IDeueNT5efVs9ui0DEND3TXcN7B69gZUNcVHWW9hULWwuvvhbdtpAWllXho/jXMMTIzN8HXxaOcRa1a4M/oUBfgT2Bi4L3dApZ/p/wPiQavvaVLz5xbJh75kaN4lfxPecxNH5tXW/k1JpId7FS4iyPOd7T/J8WhxVW6koi+EDKjH/+thHWXEDUQeVv0ilpgZz85qZWsnHuSU9JogPO+FjsMfWicXjizm+jQ56BBDiA+4P/Cv4KPuI2NCjdghEKhyYjMVbyq+VVd2SKFoOqg31u/bS7MY3DTH4uqOLfPI1YITLzt0cVKv/ifgfO93uCuT0jJ8NDo23NW7/XXPuJHuGGUvr4pj1pxc5ZOVYQ13BE83J/VE3HqdzvOymlmIKPdGzVEMqwH4IHzUdDWl8bPgYV+PbEX/YAQqnxlNPonUtLfELYl8cowjBaiB8ErZ1XLyW5UIQfi9Q2iqiS0xAmKxgHmYFJ9hiVO78WoaXLabkOQV1wJx2IscnOLy7XY50kiJpfPFQS0g26QPZMgYyO4+NIAU+X07/y9dufbaqoCtSBLOSOq9aov1H+YMryXzB+WkCeQMPv4JP0y+bbqnQ5CwUizsxy3FBO3iwiZ/7d23AKwoYq5MAiv9f2c63lvUNdCVEvRAlzEp9ojlPsHlfXhYZ0PkeT29oqNzHGW3tLleRd3oM5uvrL3DMRnBgO4YlYfHi95aEKYWVQf4lkeYof0aEcA4rhS7USc2gtlJjTI68SK6HmbOrnLoZMMTxviGp5I6J/9f8IMeIHPOMBg4ua43oXOH/Hwxo01I+EMrRZJGTNkKn/ilIdZybeGyIvoIt1p6fO9rMc0jsFZ5gamRP72KP97aTIi/AfWsLJiftLFkmjOHAWPQnUtE+fOUS0ttzcQGnnHjlkXHB9u8fVreZSW/LQqO9HAS5hm48pcBa6wG99+K/gvIeZescwgPm5fP02w/WDnlpm16sYTYGbk4XBcaoATh7aWaG5JVILGm7Ui6BER8LTHBtzJPzr+dV1x7EBjWIWlVYCES4j38YauktgRXEpYv7F3tj2X3B7y69oJAb9eMFrnEa5oerYz7JNpLPVwkCEHXez3joSL1GDhJjNS/vYAIua5+lgIEBdC0VUYMilMT+xlBpl8Cx3uJfjy1PKKv9fGQLkLagvMpHKk3An5dwxXRsR434oP+P/Bq6YjkyeJteAfufeiXiMAJeaLwaNbOmOwB2zBapSSv50kuCKY3PQz6usMkYkIz/UuBi+9bj/dlXl2xgfmVuO5F9XOBEX/nTTpGWn5wErTiVXpyYxSMONaZ/pRhPYI/3edwVUr+GLR0oLJyQf8PBAQgp+jVrF9yeMpU5U3JP5ocKm6GiYP0WeDfLx9w/VPhMu1bLkoe0t7frw5RI8SqjzhGYad3sLFwcVIymTW8v9V1Rv+3LqPp6bsU6EOVXWvAhc78fFM0WXBgtIGZ3xjX5QNKNEmIEEdID7g/8l/x58oY2IXyWE3OCrxOxXpwuhmu2rGfBohSMWWY8HY/2VV4CIP2yN8EttEYzw/rVTewKVB52sNERb/Gm2oh26Yir0KsJXY9HY9QyA+lCml9tGlWo/egfp5524y1k7DCFq4cbM6tt4HYxIKcSJXiS8C3SlZcNnwpkcg94nep7tUixfFSRVffB1FPiXqihzUG+fRlQv7VSdsyjedD6/rfbV05AkMhmMUpgJ5bbBVNM6TFe+hgwp6IHLgLxFHdepZerjcGSx3sLMuKNGYl0QxMzrrt9A5OLwXTpGrFaVtGoOGomXjsM/OdSJQdVl4vYduLQR0TNPd+sPB0k0ncHs8Xv+JLNnfgXjlfrYGiSc2xET4EAvXeZ+Lfkf5NLioW9ABL2j8HrmszXpQvW7FFtlp35mbjE85jIlQLZf30QPyyeRIHwc81PFK11SwbYr6iEvu/7bwuPEpLAW+YD7cqKznK/ZQ0SBNCGSVzD/qnBhYPf98q4mcayauCkGw6GBYiRqpUlXGG4n0BFSNrSfnSOBRPjekfhLskiL31BzqdlrQ0tWKsr0Iz3r/UQbEc3zXHLiLr6acrFu7iyAGn2ggHD5HPiseVemHTWhxCOuH4+C1Cp6kcfe09V7aNUrN7OAftxt6nxiBypTLaNp1JZpsFzrFU71EDdfGzVonSF0R59S20XleB9bpL8iQ/szRxAnvcUUoICxRnOOiVlU02wXQXA1wI4GyooG9yc0IEN0LUK6yZYraSzsFBWM7S+cJ0uX1IQpZhtrP6pswoYU+98boS+DjN0o/q8w6iAOMUtvPp7UuhQQolktKGvfSjmc0HJq6Ks/Ti7h1c1Tsx6gZBcsxXuWu6ma3SMOixmfb/Bc5LytPPhFHc40HRcuFlMm3sE+v4YIUjLV+0N1ELeYfRhvcpC9SQSmH22U23J1ptLcBoVW/U5O9SB0O5uAr1H+kNBYRPE3UCr/KkJDT6Reibpp5oHMdLD7KtbdGvposNv/WJOWqjNhjE89//FVf3N9hOx6+rypVLKYTCiJ3lnFythoqMTL34F4VdTwxZPk2cQOQ/jQh0Tpfl3szMlwhE0gCDexfZu/cn88fR+CbDyypYzVhecnrEfZ8YZQi/PZmCbBrzBjjFxtXhkpGAo0HjKYmjfP+0ob5hqUHXEqgktz6dpyY0WTeGbw06E9xMA87j4WmWjFjSf5L01DJyx9bMt2U/iV7CDjRE69PlqiG7/f0aG7epSoeGMg+izcnhoWL61Szn6OOzdrLGMkJcUpvUlOnbU8WU31lpgithfas+YKqfDNsjig/XWn+3l18aDqh897rtvKb9ydgNIXZ4e0fq2rxfM3c7RhZgUZc15ycxWaYYrVozI7xGl8I24UGpVgO6DasN3NgdymxTC/MKZZnXe/6NJux4Y7BG/CIYy45Q8LaJpsv/6j2ykakKcEhW1F6hRT+2FYto+Kh/FyMjnXgIYXW2YwfK2IQxzJ1FCZtGRZaPd+A6oWbGefw3WQXjWqHRrHdcM2oICD/fTJd147zIfM2K3YcWq16joim0pSzdWknrdnLq19acGsy6NDy4EEsID7g/0R/BF4UcxXqG323VRdy9G5sir/xfHG82kZSEAZVxo3GJeGg2hvOf5XGp2u/OP0Q7Nmz1TkqUrS93qrIYariwyyJl9BIqVD/8M7D2Wjz9ESqVyGqWomDJMrKcsY0dMopdg0UaG7XguGqUGzvw5eIW5pqOhNS8mD/4TVuBvYMSxE//HFWJrfIOrDB2FzKiRsHAvg4sDCSigiZvovKnQx6B8eW7TfgqsRyWxCt4LAMkft3DkQvlbioz4k4u+iANO6SJerOcUE0bI1vo6Od+XYQj/Z/hp9ZNonmSVowiNwqkiWuNUqmZfy9Hpyhhgh7ZY+HkBejXqEydAK8IWCyV91/iQOSdKAztUgxHNP1E17qoZYVFwdgaXOPm/DkCLWhRi0NXFrdqwJNIvbdxxE/RmdQ6Lc6XEiJN0Jwpxzl8vjFpl7BZ/AUT/V9Vs5YPKq8rmifWAzoQlmrlQlXzYYQpBovusRP/BzOQWAe72uRJsIExON9CA5Sm5GzRLpCYH9YtVAimvxXLroGdny2OAITMkLapIfVE+/DuL4MhVWRA6hV9rkaoQhIBb9YTmPvoNtpcAxL5VEf/Lsk2bqfcFRofDhqNthOSnSaW+NqNP2FDL1BYZJNq2ofmNE0+r6mo6LIrZvvFqkpHsXksny2udBFtLjeB4frh5wqRPOQRlMV4gXB8tnlHdIcFZ5i63TtY0NxX1fEwszr5wAdUHUmkqpYT4Xm9pl4/qGegpr6jv5PBEU4L2iV7MKaL1NwAfb6aoE3VLAXOJfdiPtGZHcFIu58NWB9hNen0OjsESdBZvv2ZUWpGrx6ylOjtHMPJirX/nYedAYBfEMxWxupiowI//gMVi7eD+HK8MlubUMO7eEZtpT0KzJplZsbv7SH4OPjTfGi2e4Ph/3ntZhKy5aMveRyynJcME5+kkD7SHqqI81rcMOh03ExA6jxXOe22wD+0NpPh2HcuGUlNFuW018tz0Uq9RD/Ub/TVmCB/a7+/Mm64PQgZ5qlTgbcjy6zucYi4hmNMs6aw+xqFeKSyTnaFWVag127XglLM/byt1BsmQEXiXnT/yPHV9gspjci6GP8Ki697VKPcTr9zPo8F3JVRxgvRW+AwLhcb4GZQSnLRe2pWXQqsfpgfZM5Lx3CQDjjSrXc4nNCT8UOvqt1NIjg28OHw7jYQa3c5xQK6nR5TlrAggjUYSYh4jWCv3wajxRBGlfkhLfjariAAZTMuzwuI48KGsYaJ171F1PPnceaGx1myNi6+xkRdvR9vw1iLw+zRaSHtKhMO5bB+iIo0PGgQTsgPsDqxzN2DzfXmLbNdXlyzuf9OpJZfzb4e7s6xr0wMOkG1DruFgAdK9T6793GzXexTv9NxvckfSArKHbbi9WMi9nFB77GXTu0I3wSQxFCzFOOKXlpirMFBqyqCwsky6I+GGXpTufu2VxwqMz6zEX2l5J/NQC4OvDt1iJULIWtTn86l4rhn8hTpyCPE4LrZYHuYE66gkhau6eD7fSfYcPJZBA4IlugtUm/c07eigR1lJlhxa/rMcuRuud9MmMuZcbNLt/2MBWmYM7jiQnv/g5BByWXEfhspOOPvfRFCOUNBUtzDwVyU+Hx8Me/O+eVBqTq44d2JfbiH1BdaCdKDUlZBL6cX3opdeuToJYi+YYQ3j5ZKA/vIIvIw/cJNnqlBI8SsAaRiv3vsfSYx28o1D7K7bYxGZSe2DBy0ctp2w43ZS2mIqvB55LAR74ppvgjtq36ivzNcV2Q9eDjKSkmHyRLOLH0PKEpHE4KneMRSfs5QcWTy5xP40z2XSQv1PqqK4wotHGszVvPE7gVfeyddaWoP7/erND/XrbuP0oI0lz9Et6KdyV4Qie599SG15Hdn7EySg0tpJvi6jcRe6aMCo014EoPmZMIYA0udlNJ9Wq3uwDBSb/JczlOgZOBJ9XWVphaJC5Nv5DAIwu2LGz9b/Q+TnCqmXEAJiove1Y1r9Y7wS7X7I+fqc7IjndP6UiH0wAKVt2vbUK8WXxy4KIHGjRxPM1tnnEmM5zEGB/LTah4qVUBHgrySSq8TtiD21+516xDBba/poq4XGfAdlr57v9voPbyu4S69XA6mLvPahPw77vy3rhFicNjHz2hszMRarrLJrcU41YyK4J0k/imZNvdbKIjLUFRG8SlweZ6X5LbTgTJEbbIDCqvfk8eJjL5YA4xFEMuauopHI9Ex5QCNsucut2JnwwIy/+djL8qNXd9mK0JP0+Op2j0HvimydSJEWPNB0lQSecqcAVLSX7EeOdgaiWBvK9ZS82Hi4Q3uOhhAOJ0EmQIlQSmDAmmOxsm3Mutx8lVRuq6wZoKpjgrS1up/tUr7EF1opOkiQQ4DPdHScSUYasSCYv58sfenX2D852BgzKmM6Xft4rluTiw414ErvdjB0zEG0lo/6GKgHHNHO4TudNPStUJqo/e7Xw2ZhYAic+4jkainJ5DKSciVMuUMLpI8RJA+0N9qRWo6vqKtYUYhdhXIbN6ZEe3lbP1r5juzNLtnv/jU0IR6Y11ocr68DC43YCQ+dZl+PVEXFtwjYtc40/BNaxNYRGswXZ3a3qi66Mo0OzgQUogPuD/BH8EbTnQO/Vrnil2QUp7z5tW2PRWi+IddfabNE/q2mSnX6HJ91F8eYTAMhfF1qaKFUf7nbCHHxbUacmcJ7MzAPhuwUu0SMHJRQTpPinXr+eDuKuLST0ovg+72GOF6G/7orREsYJlv3bTiKOFfcC7gVhpi+cvgNCKUUIKOcK8tM3KMEj/7xTYgyaxa+CW/V36Pn901e4LrjDguIzFmk3V+dt9YeuzKG8V3YOg3l1JQ9i1d/kBP8jekfGCsvYRMJ/EnTDMdLJayGbBLtiokykhs11G/kzHGer9YbktEKOKMl6q25eWtVSetN1B2+80DfpRwE84CUn+YaxARgKTBJ4QAIQoT9qMjkpT7LT3Sr9HzAAcoqDVdkFfz5e2t0ogC+HjLaLYpXC5cTfQAPlKTxeWnT41VpngknHjC7iOBqSTCQIJqSOesDq7EuVCby7j2yuD/7EyqoExy7hiYunXyEQmoGBhZyr9gD0XJZCsO/VYJmmTxHSfOlfY3KV/SXUaRG3WdoyMiJf8aNWDU6n9FNRp/kKTYj5cdm1wtMjEXLZsaZ+W1f5HI7mVwrJRi+FM751vxOH5mi2JpW/1s66kG1koSot5a8Hjv5SuGj8iWSXCbbdOWpCTMXBj4G98BE8/R8KxlKj6J2SXAeLPRSprkUgfIZ17UqhaRHSsG46dUi3+MWSTONJFluZ6Fs862pq2/rk2BGHBeyom8+Sx2RKS0dlCgLJ/jBn44Ckfayp20U1jCPxqOUGedlNGy+rRDCTGpo1mnpXn3whxZJhcI+T0pPmZxGlSlEUmyzcNB8CsbWa5y4yXWMrcMsroXkNQ2pLAY+BXlE70IhWLA5m4OHtXNCmbNp8FnsDvCQCJ7LzE1LsRKpUu3NzSImvSvjM/n8J9e33MSWGSqNGxFen7d1OslrknwSoo3KJtRosyCpLrWK2afxthotHdUt9iE2os6WWRjSKNmlqzV5x/YXamkOgL13uwkUIlNJMg5sk09a/k2kJMb8iLMEVmU4KByQAgqmtvIWCVN6PcmRECl3c/cKfyBGWOGYzoCwfrKLiT6lSAQQy4/MHeTgBrJcveD4IM0fO1j7tXTF1vycwVYEelZavbx2rhRIxM8Ot3JZAve5n9m2rhvtuQGUAeJHHhTwAwLV2+1dTfPP0PzwrL12NvlPJxVgsYnjn/P7TVQz/H4DPFZARpAyysCi6CqSPsDZ621DJlNQJ8psuJfM71VP0X2+fjnPoA2YdUMoufBi9Jz+7+RejQ2aBBWSA+4P+Cf4IAbiGlr947LKa8mMsMgsyo1o57l+oxDWmEjybnUFqQkL+xdsdENhaZ1s3F0ePDjY1CgdBfzBNNyz7VxeEmyIIohUUM4CrpC/nwkIk7itJxluSiEmOe6Uxq/NfBA6iSoDmhU0PgqmjqE+LZNS41R2c+ty2jtVUSgTOjhxZLGgoy+tgIQtNiAp9RUUJizu8GYrkk8DyB9Ooj6yLRCL+XRaqjzK5VErs3jofBjCFCRnPGoCbXGzM3PjAefkER0evF1rSEYOa0l6s5TA8v7LYdMDZVuHQ+LQDAjmgFMcyk7DJE2IoftJ6ZNQUInCKsuVQRMHgZftqc38Aerjdpha0lRV6Lx+QBkKdneNyzNJiP7/4vPC1eR005gOM7/FfB++sj1pM9H+sc2iGdDPx8TiYoSRWYQ1SPeIn4/zSv04iDZiQSoTvu+o3U2qVqyHJf6Qj5n9SCGpFSKya4wjm1+eRgoy+equ1M1up8DJUnLQflKP9TNxdKdb4GL7k6LIUAiH8sfZWZQfMKLOhf7GDY2+hvZagW2tD+vEDKOStrn6UwLNuWgn/bRqzVbT66223xH6boGDFFpi6z0f+2WLyOspa0aJ0qXGjaYbWcuZDkPNXch9mqc5VvkOiDIvX8pNN5xnlshoK4ae7lqzm2CjaU0x+8/OnllQ/kLMouusYbTYjoQb6WFr8zSfCCQOmUk6fHQoAmr23VLzV0UxJrOIM5GwNgcI49N9xkpT9lRgYbx/MAhU7skrRXk7w3BXBHfvHjeRYzS6JQuRHg2iRkIfSx4VDzzxRrmvxd00Iq48wuREhFfc92h9dPR7JBq68NAnArudv0vFDZ9O0/SanLL5Wue/sxyO5CbCKFFqf2Hku+giFKFZfCW7ewkGDonME+XC1bleNIJ0VDdzWmBapKvXV+wUeKw9sFWuNU2LUWavHX8yabiS2+98OF4eYsz4/n6dKuLkVtyRKcE+NWh8Vh/2q1nAhJMnkGn0m3pDxFoASWwrDMvvxCIViqubqnwnrosCksfxvwmcq+FZ3o8FaYau8KUkKr67KHe3fAGeE24Txe2br7HzrKirAgo61sqJQzCMlTsCvlidNQ8Mpp1kg63KTbii7xPIyJ972FXZjZ8UThKgwqp+6YCCaYwXUlXxmMjtKB3qjQ1+BBaCA+4P/B/wIMNMCpEpwZLhnW2RCD6vdQAKkiFtbrwhnzvFLEDLhevrn1H9r4Qb6Kwjxb/O5tCXmpzGBzc+/nRoQp3bgAApmF7B+rzrS7w5kdwz8rGoP6Dwj2ahz4dI/J02l7pqn/sIEyJSOrPEJgNWBHQod4hGQ39drdLTuAGrMHDIdinxyI8yIFFolJTUk//0dfJJWegym27g9ls9RH6EOI5rdnvN5ZvsabyrXbVfZDcleQkEM4/jHkN7grFlvwVQKGqyIlA/4mVTtBrYKRoNddCeMGTvJ1aKyM1FQzHr3t1I4ROlfroqXX3N8y3fwch/2VfIzu/zBiJ9dPXYcrhbjxt3NjS2PTX3Iu3abjwjOrlvRUghARTX3ZdRgI+dK3ldpNDA/deUbGksAdyxXW+JCGahbZqNLjJ3gzVpXnxvZrSpf01YFQPV1T+Aa8FR2kH7xPIIssW25E9JJM8O33JhBsVcsEescEaCPqPYQ91FEiiL6ESUpDMsOPr4vNAQzVRW7yGGGz3S7l2rsXFBYbPXI2CnF9R7ovggsOYluDCGd5ktlJmUmTnYBxH7H3FePgDgAQu3bnbr0cBZPBmZGxMGLdq2xsf0PfWEQ5f56srKf7Z5PWsPIgyopEyUPazsolP+aGDdRSjqWPgWc36qAA3nTEwxF61BNLGtdmHQWNF88mV3yehi3d9WyjPLYQO6SW5n3X65QWsW0Q0NUuqV0icdLvi6rBlPejP2xKCkdhVMMWoe3L9Aw09cy6Q4wZjyb1rkNzY/XtPbjNvoWVNrGdEPUmGlXSpv2jZ7qC6wrm47ikbdfNQe7eUTLXWtVwJ2nhKS5e0mgU0rHFeoz/FPT3Qc3i965OPlv4oz/kzVAdawAb4I4SCGrrMasGrKOBAR6lTve6ukwF8YKbLPsrvqtSMgIXSYkaU6RWp/41s+NRKwA1DMAEQvcM4RaT0IHQlVhVm2eqWjmps8FGWCj6W093HxKw6IO1Zpt+HD4F/1df6Njp6P2BX3N5emrIDzV1kWgSSHzsInr2KVe0vFvo5e7FUbA5PwVHGi9L+yM84m0Qgsnw8dz8Yyr74uehKZOUkzax41KnKn83ViRttPXosW79oEinLCchQHu1+r/xorQc2kKJHeyxDV3bs3H8Bx6daNEOIEF3ID7g/1A/wd6L6k6XfnLKSeinRiChxCd1QVpmMxdfGcesMuhsdPi0pZkHLjG3Io4W+hdmEBiGqj+ILZkC75yKsEx/955RVJ3f8+H8vFzSfBMGPd7C7afX8YoZ8lCBuPzerdgv8AjNFNysHFiOhJQbBi51j5YeCesB1n3NPYuG9CwzUbpc9VpLRpfJUzAhw0l2o+AuhUv8lDI1/dzxH5+Pk/VG2J76iCQLrIdZ0NFNreZ+MZ+czNHDBvSP86MytxswDEbmqN3kfFbSOmVGYxpbvAKgFXrxn/pCF+6Reqj8p61EFdeHflV1yeoUaahoygMR+tJgm1Y9I86nR66mDt+CrnAXNMsCw4VXy855NRGAXnogSlHKw9RYAKLC64RZ+b/BowOMefHiFn2QC62W1HjqeKstEt/bDsl0mEcEeTZSn1Deo0/5GHIFpleHuOgo3voMep3KD7yDn5R4e1DAlqBtBouw5ewXdN8CFt9jj+/dLZ0ItTGd7DvBllOyEvY5yPSxrlUa4vGRASUWhqqSFkNPvYtEbPcHSq7/pDgv6nZ4tSLFOnxC45i1av8DpgUqM/8GxnVDQJe2IwN3AxFBd6npB+3ag0pnAGWjomZsNi3AZZv9FHcG4CHS5HF0xwdYW//d42J9DX0MQoBs4ss3m970hfioPPEoBV7RzRYFQYMxanqdbkAUyLuHMJgq+iTnGBfbxNqGWgzpKSdnYXCK8hiYZ0+NWthMEL9k0ptzPnHJC30D/3C90QCgWTXkSJLDucVHffJb3Rsq2hjIwtlehAk1HLAoe6ZWD4cpPjsANVv/itGcaBemvcbZzK+6HHWc9ZlMkX3KAo2YezXEJ72i82zaHhiyfdPl+vioTJ7Ko3Rw8rZLDG9lTApqgZ9+Vl6UkVcqb+ph/+sg0a6caOPBh4wkPJgcbz/MD54MDkvNgHFY6e0x/ds8A/iwXB28Bv5iqmACLU355ng1gk5Gsab43gHDWsjfMTv1tCY0pCjw0F/VCknBPof3oJqk5DxvKHSp78FbXMhaibllrQvvd5gzs+kKUswpd+GnKU3K7nizh3SQzwXsPCHltzO5Hwf9fecPzKm4x9dzdimdv8WkJ99F7QeOStZheTUdh/OMUMzFu+lxX5cbbVdVpUFsduS3Bdh7/kL/YV0rTnkyIyB0F2EX1SZKPf8kvf80HSQ7NWCiXc/aT0E3syU0doYioojXR70GwD3/o/nNffWnYl7iiOBwmREikfJydS54sVGoSSgUsgKCBuUwtTRS1vn9PHM5d/g9VILm16gkPoPchKq/+PrevmP6eDREDEkK5zoEOaNSLZ4xoE7M43gRpP8f7NR+nfwxiZw11O6SYgXQ7k5iCrAHb3soYpNCH+nWpMNrRUcDc6N6G6B/DlozU6a6YIhVbLFoqS9SU+hoxWRWeFmZm+CQunfsW0B2AKF0aNDQ4EGGID7g/8F/gZTcex/FauEBUBKFeY5sGsnSdcMZAJuXW1t4S4m10CIPqXshri8Kq2wYqJAfszbd6OttgLy3GPUd8UppGtZPi20Oe5R/Jbmbz+1hU2nc6sHWV5aBApOUMJciXeMiM6Y/10KLKkRENpGwHSPYiEgGKuq35QJdfynyYaaGRAEvxmMqUrK3OR8s9cJSyUNzZ+aY1WUdwGS5ZXPGBhaZM314EUXnz9iCzFXhhFnQCtup1ESyJVRXzeMZx2MyuAOlIm9HK4s6iToRcsvVwo2aL0Cod6rXm4FbK9kYBHwMBgKk/WUVRO3MZ0GIGJqVu8Uok1vpXdAIiFdxlCWTAHCwQ2spPBQxAM34xP5WcGV9PGeCl9rrD/eVz0jl+93iL15avPh9q5cqSlfrJo8zpahpAfe8bQcld6FWYtytMESJFyZIpTgtDPqWHp5vbAyeOFwIkq6mbDGvRw7hHCbys/mLgfdg/aGA39dWYIV8YtpjNn6ffkHdON5W3pA9h1Sjoc0oL++DiB/sweURNoLRMh8Sj4f13WGPjFBayfq1WrOcIeA04zeSfGKzxNb4SfGrFdckCHGecRh4Ms2IvPB37cAp7iUfXg+RJVeoXj2XmfClq3n2Ro6+m9Ikno1D4kvpt728jRpAgmgHWfTBu9Vs09AXfy7PdXW5BNfVDAjda/k5MT7KCYDRsGGmSGBBjc0OzSEd8ex/mIabxn6Bm81Gg65Qdb5eKZT328J95l+Gog58YyBQlOIaiGPsFFo3AY6LYEafpCHWRv1NOEL8mpoB36c9WIT64Qmxxm8sprQoraqbO2Sd0yEuc1Ylq/btsoUSJBIQCqYqhnv0R0moDnhfJZQhc0nBsQC1qOI+R+/R21pBc0q6ON15lltc32VMU+OJUpWBBGDursGIe1h4ImNiT1iYj8OPZpCLjpmTWw+aR31yF3RvJLwc8e/gjlBHwaGEbS/wr/khVw5ghEJx6f7WoEu9s0oWFppPaeH5f0TCVXyKTUPJIF1XtgqTaWLErLvt87bJgkWLIK4uYn5AeCNQ8mXTsM38vdHNLRl6h2zRf41QiCdz+0LCyl0yZJvTcdJfqM3qA4M7ecJOAwEZz8940M=","10","blob:https://test12345.live/7252510e-98da-47dd-a034-506454b491b9"
"","","","","","survey-text","20","127188","0.0-20.0","5awf6xa5k2k8bjz","conditionB","3597","","","{""Q0"":""ee""}","",""
